t,sensor_imu_yawrate,sensor_imu_velocity,sensor_imu_accel_y,sensor_imu_accel_x
1751195522.612850,0.000000,0.000000,0.000000,0.000000
1751195522.655750,0.000000,0.000000,0.000000,-0.341600
1751195522.705750,0.000000,0.000000,0.000000,-0.320250
1751195522.755750,0.000000,0.000000,0.000000,-0.335500
1751195522.805750,0.000000,0.000000,0.000000,-0.301950
1751195522.855750,0.000000,0.000000,0.000000,-0.305000
1751195522.905750,0.000000,0.000000,0.000000,-0.323300
1751195522.955750,0.000000,0.000000,0.000000,-0.323300
1751195523.005750,0.000000,0.000000,0.000000,-0.305000
1751195523.055750,0.000000,0.000000,0.000000,-0.326350
1751195523.105750,0.000000,0.000000,0.000000,-0.311100
1751195523.155750,0.000000,0.000000,0.000000,-0.292800
1751195523.205750,0.000000,0.000000,0.000000,-0.338550
1751195523.255750,0.000000,0.000000,0.000000,-0.341600
1751195523.305750,0.000000,0.000000,0.000000,-0.323300
1751195523.355750,0.000000,0.000000,0.000000,-0.298900
1751195523.405750,0.000000,0.000000,0.000000,-0.347700
1751195523.455800,0.000000,0.000000,0.000000,-0.308050
1751195523.505750,0.000000,0.000000,0.000000,-0.311100
1751195523.555800,0.000000,0.000000,0.000000,-0.326350
1751195523.605750,0.000000,0.000000,0.000000,-0.305000
1751195523.655750,0.000000,0.000000,0.000000,-0.350750
1751195523.705800,0.000000,0.000000,0.000000,-0.308050
1751195523.755750,0.000000,0.000000,0.000000,-0.317200
1751195523.805800,0.000000,0.000000,0.000000,-0.332450
1751195523.855750,0.000000,0.000000,0.000000,-0.329400
1751195523.905750,0.000000,0.000000,0.000000,-0.347700
1751195523.955800,0.000000,0.000000,0.000000,-0.314150
1751195524.005750,0.000000,0.000000,0.000000,-0.320250
1751195524.055800,0.000000,0.000000,0.000000,-0.332450
1751195524.105750,0.000000,0.000000,0.000000,-0.320250
1751195524.155800,0.000000,0.000000,0.000000,-0.295850
1751195524.205800,0.000000,0.000000,0.000000,-0.326350
1751195524.255750,0.000000,0.000000,0.000000,-0.338550
1751195524.305800,0.000000,0.000000,0.000000,-0.317200
1751195524.355750,0.000000,0.000000,0.000000,-0.314150
1751195524.405800,0.000000,0.000000,0.000000,-0.298900
1751195524.455800,0.000000,0.000000,0.000000,-0.366000
1751195524.505800,0.000000,0.000000,0.000000,-0.240950
1751195524.555800,0.000000,0.000000,0.000000,-0.317200
1751195524.605750,0.000000,0.000000,0.000000,-0.323300
1751195524.655800,0.000000,0.000000,0.000000,-0.317200
1751195524.705800,0.000000,0.000000,0.000000,-0.329400
1751195524.755800,0.000000,0.000000,0.000000,-0.311100
1751195524.805800,0.000000,0.000000,0.000000,-0.323300
1751195524.855800,0.000000,0.000000,0.000000,-0.344650
1751195524.905800,0.000000,0.000000,0.000000,-0.317200
1751195524.955800,0.000000,0.000000,0.000000,-0.320250
1751195525.005800,0.000000,0.000000,0.000000,-0.317200
1751195525.055800,0.000000,0.000000,0.000000,-0.338550
1751195525.105800,0.000000,0.000000,0.000000,-0.326350
1751195525.155800,0.000000,0.000000,0.000000,-0.314150
1751195525.205800,0.000000,0.000000,0.000000,-0.332450
1751195525.255800,0.000000,0.000000,0.000000,-0.317200
1751195525.305800,0.000000,0.000000,0.000000,-0.311100
1751195525.355800,0.000000,0.000000,0.000000,-0.329400
1751195525.405800,0.000000,0.000000,0.000000,-0.308050
1751195525.455800,0.000000,0.000000,0.000000,-0.335500
1751195525.505800,0.000000,0.000000,0.000000,-0.353800
1751195525.555800,0.000000,0.000000,0.000000,-0.341600
1751195525.655800,0.000000,0.000000,0.000000,-0.311100
1751195525.705800,0.000000,0.000000,0.000000,-0.311100
1751195525.755850,0.000000,0.000000,0.000000,-0.323300
1751195525.805800,0.000000,0.000000,0.000000,-0.335500
1751195525.855800,0.000000,0.000000,0.000000,-0.329400
1751195525.905800,0.000000,0.000000,0.000000,-0.314150
1751195525.955800,0.000000,0.000000,0.000000,-0.298900
1751195526.005800,0.000000,0.000000,0.000000,-0.332450
1751195526.105800,0.000000,0.000000,0.000000,-0.326350
1751195526.155800,0.000000,0.000000,0.000000,-0.292800
1751195526.205850,0.000000,0.000000,0.000000,-0.344650
1751195526.255850,0.000000,0.000000,0.000000,-0.347700
1751195526.305800,0.000000,0.000000,0.000000,-0.353800
1751195526.355850,0.000000,0.000000,0.000000,-0.323300
1751195526.405800,0.000000,0.000000,0.000000,-0.305000
1751195526.455850,0.000000,0.000000,0.000000,-0.366000
1751195526.555800,0.000000,0.000000,0.000000,-0.295850
1751195526.605850,0.000000,0.000000,0.000000,-0.338550
1751195526.655800,0.000000,0.000000,0.000000,-0.311100
1751195526.705850,0.000000,0.000000,0.000000,-0.329400
1751195526.755850,0.000000,0.000000,0.000000,-0.332450
1751195526.805800,0.000000,0.000000,0.000000,-0.323300
1751195526.855850,0.000000,0.000000,0.000000,-0.332450
1751195526.905800,0.000000,0.000000,0.000000,-0.295850
1751195527.005850,0.000000,0.000000,0.000000,-0.283650
1751195527.055850,0.000000,0.000000,0.000000,-0.344650
1751195527.105850,0.000000,0.000000,0.000000,-0.317200
1751195527.155850,0.000000,0.000000,0.000000,-0.320250
1751195527.205850,0.000000,0.000000,0.000000,-0.332450
1751195527.255850,0.000000,0.000000,0.000000,-0.350750
1751195527.305850,0.000000,0.000000,0.000000,-0.314150
1751195527.355850,0.000000,0.000000,0.000000,-0.311100
1751195527.455850,0.000000,0.000000,0.000000,-0.320250
1751195527.505850,0.000000,0.000000,0.000000,-0.390400
1751195527.555850,0.000000,0.000000,0.000000,-0.344650
1751195527.605850,0.000000,0.000000,0.000000,-0.347700
1751195527.655850,0.000000,0.000000,0.000000,-0.375150
1751195527.705850,0.000000,0.000000,0.000000,-0.359900
1751195527.755850,0.000000,0.000000,0.000000,-0.375150
1751195527.805850,0.000000,0.000000,0.000000,-0.353800
1751195527.905850,0.000000,0.000000,0.000000,-0.350750
1751195527.955850,0.000000,0.000000,0.000000,-0.323300
1751195528.005850,0.000000,0.000000,0.000000,-0.338550
1751195528.055850,0.000000,0.000000,0.000000,-0.292800
1751195528.105850,0.000000,0.000000,0.000000,-0.286700
1751195528.155850,0.000000,0.000000,0.000000,-0.335500
1751195528.205850,0.000000,0.000000,0.000000,-0.289750
1751195528.255850,0.000000,0.000000,0.000000,-0.329400
1751195528.355850,0.000000,0.000000,0.000000,-0.344650
1751195528.405850,0.000000,0.000000,0.000000,-0.396500
1751195528.455850,0.000000,0.000000,0.000000,-0.308050
1751195528.505850,0.000000,0.000000,0.000000,-0.295850
1751195528.555900,0.000000,0.000000,0.000000,-0.298900
1751195528.605850,0.000000,0.000000,0.000000,-0.301950
1751195528.655850,0.000000,0.000000,0.000000,-0.338550
1751195528.705850,0.000000,0.000000,0.000000,-0.356850
1751195528.805900,0.000000,0.000000,0.000000,-0.323300
1751195528.855850,0.000000,0.000000,0.000000,-0.320250
1751195528.905900,0.000000,0.000000,0.000000,-0.298900
1751195528.955850,0.000000,0.000000,0.000000,-0.308050
1751195529.005900,0.000000,0.000000,0.000000,-0.372100
1751195529.055900,0.000000,0.000000,0.000000,-0.323300
1751195529.105900,0.000000,0.000000,0.000000,-0.366000
1751195529.155900,0.000000,0.000000,0.000000,-0.295850
1751195529.255900,0.000000,0.000000,0.000000,-0.326350
1751195529.305900,0.000000,0.000000,0.000000,-0.326350
1751195529.355850,0.000000,0.000000,0.000000,-0.347700
1751195529.405900,0.000000,0.000000,0.000000,-0.350750
1751195529.455850,0.000000,0.000000,0.000000,-0.326350
1751195529.505900,0.000000,0.000000,0.000000,-0.305000
1751195529.555900,0.000000,0.000000,0.000000,-0.308050
1751195529.605900,0.000000,0.000000,0.000000,-0.332450
1751195529.705850,0.000000,0.000000,0.000000,-0.341600
1751195529.755900,0.000000,0.000000,0.000000,-0.311100
1751195529.805900,0.000000,0.000000,0.000000,-0.305000
1751195529.855900,0.000000,0.000000,0.000000,-0.308050
1751195529.905900,0.000000,0.000000,0.000000,-0.329400
1751195529.955900,0.000000,0.000000,0.000000,-0.350750
1751195530.005900,0.000000,0.000000,0.000000,-0.353800
1751195530.055900,0.000000,0.000000,0.000000,-0.329400
1751195530.155900,0.000000,0.000000,0.000000,-0.320250
1751195530.205900,0.000000,0.000000,0.000000,-0.311100
1751195530.255900,0.000000,0.000000,0.000000,-0.335500
1751195530.305900,0.000000,0.000000,0.000000,-0.353800
1751195530.355900,0.000000,0.000000,0.000000,-0.326350
1751195530.405900,0.000000,0.000000,0.000000,-0.305000
1751195530.455900,0.000000,0.000000,0.000000,-0.314150
1751195530.505900,0.000000,0.000000,0.000000,-0.314150
1751195530.555900,0.000000,0.000000,0.000000,-0.335500
1751195530.605900,0.000000,0.000000,0.000000,-0.335500
1751195530.655900,0.000000,0.000000,0.000000,-0.341600
1751195530.705900,0.000000,0.000000,0.000000,-0.295850
1751195530.755900,0.000000,0.000000,0.000000,-0.308050
1751195530.805900,0.000000,0.000000,0.000000,-0.311100
1751195530.855900,0.000000,0.000000,0.000000,-0.338550
1751195530.905900,0.000000,0.000000,0.000000,-0.372100
1751195530.955900,0.000000,0.000000,0.000000,-0.326350
1751195531.005900,0.000000,0.000000,0.000000,-0.323300
1751195531.055900,0.000000,0.000000,0.000000,-0.311100
1751195531.105950,0.000000,0.000000,0.000000,-0.314150
1751195531.155900,0.000000,0.000000,0.000000,-0.338550
1751195531.205950,0.000000,0.000000,0.000000,-0.335500
1751195531.255900,0.000000,0.000000,0.000000,-0.323300
1751195531.305950,0.000000,0.000000,0.000000,-0.308050
1751195531.355950,0.000000,0.000000,0.000000,-0.317200
1751195531.405900,0.000000,0.000000,0.000000,-0.308050
1751195531.455950,0.000000,0.000000,0.000000,-0.356850
1751195531.505900,0.000000,0.000000,0.000000,-0.350750
1751195531.555900,0.000000,0.000000,0.000000,-0.317200
1751195531.605950,0.000000,0.000000,0.000000,-0.347700
1751195531.655900,0.000000,0.000000,0.000000,-0.320250
1751195531.705950,0.000000,0.000000,0.000000,-0.289750
1751195531.755900,0.000000,0.000000,0.000000,-0.353800
1751195531.805950,0.000000,0.000000,0.000000,-0.329400
1751195531.855950,0.000000,0.000000,0.000000,-0.347700
1751195531.905950,0.000000,0.000000,0.000000,-0.326350
1751195531.955950,0.000000,0.000000,0.000000,-0.265350
1751195532.005900,0.000000,0.000000,0.000000,-0.341600
1751195532.055950,0.000000,0.000000,0.000000,-0.344650
1751195532.105950,0.000000,0.000000,0.000000,-0.326350
1751195532.155950,0.000000,0.000000,0.000000,-0.292800
1751195532.205950,0.000000,0.000000,0.000000,-0.308050
1751195532.255950,0.000000,0.000000,0.000000,-0.329400
1751195532.305950,0.000000,0.000000,0.000000,-0.289750
1751195532.355950,0.000000,0.000000,0.000000,-0.344650
1751195532.405950,0.000000,0.000000,0.000000,-0.326350
1751195532.455950,0.000000,0.000000,0.000000,-0.362950
1751195532.505950,0.000000,119.929050,0.000000,0.000000
1751195532.555950,0.000000,119.929050,0.000000,0.000000
1751195532.605950,0.000000,119.929050,0.000000,0.000000
1751195532.655950,0.000000,0.032940,0.000000,0.000000
1751195532.705950,0.000000,0.000000,0.000000,0.000000
1751195532.755950,0.000000,0.384300,0.000000,0.000000
1751195532.805950,0.000000,0.000000,0.000000,0.000000
1751195532.855950,0.000000,9.631290,0.000000,0.000000
1751195532.906000,0.384300,119.929050,0.000000,0.000000
1751195532.955950,0.000000,0.000000,0.000000,0.000000
1751195533.005950,0.000000,0.000000,0.000000,-0.003050
1751195533.055950,0.000000,0.000000,0.000000,0.000000
1751195533.105950,0.000000,0.000000,0.000000,0.000000
1751195533.156000,0.000000,0.000000,0.000000,93.131750
1751195533.205950,0.000000,0.000000,0.000000,-0.295850
1751195533.255950,0.000000,0.000000,0.000000,-0.003050
1751195533.305950,0.000000,119.929050,0.000000,0.000000
1751195533.355950,0.000000,0.000000,0.000000,-0.003050
1751195533.406000,0.000000,9.605670,0.000000,0.000000
1751195533.455950,0.000000,0.000000,0.000000,0.000000
1751195533.506000,0.000000,0.000000,0.000000,0.000000
1751195533.555950,0.000000,0.000000,0.000000,0.000000
1751195533.605950,0.000000,0.000000,0.000000,0.000000
1751195533.656000,0.000000,0.000000,0.000000,0.000000
1751195533.705950,0.000000,0.000000,0.000000,0.000000
1751195533.756000,0.000000,0.000000,0.000000,0.000000
1751195533.805950,-0.009150,0.000000,0.000000,0.000000
1751195533.856000,279.788700,0.000000,0.000000,0.000000
1751195533.906000,0.000000,0.000000,0.000000,0.000000
1751195533.955950,0.000000,0.000000,0.000000,0.000000
1751195534.006000,0.000000,0.000000,0.000000,0.000000
1751195534.055950,9.644100,0.000000,0.000000,-0.003050
1751195534.106000,9.689850,0.000000,0.000000,-0.012200
1751195534.156000,0.000000,0.000000,0.000000,-0.003050
1751195534.205950,-0.009150,0.000000,0.000000,38.283600
1751195534.256000,0.000000,0.000000,0.000000,0.000000
1751195534.305950,0.000000,0.000000,0.000000,3.016450
1751195534.356000,0.000000,119.929050,0.000000,0.000000
1751195534.406000,0.000000,119.929050,0.000000,0.000000
1751195534.456000,0.000000,0.000000,0.000000,0.000000
1751195534.506000,0.000000,0.000000,0.000000,0.000000
1751195534.556000,0.000000,0.000000,0.000000,0.000000
1751195534.606000,0.000000,0.000000,0.000000,0.000000
1751195534.656000,0.000000,0.000000,0.000000,0.000000
1751195534.706000,0.000000,2.029470,0.000000,0.000000
1751195534.756000,0.000000,0.000000,0.000000,0.000000
1751195534.806000,0.000000,114.195660,0.000000,0.000000
1751195534.856000,0.000000,0.000000,0.000000,0.000000
1751195534.906000,0.000000,0.000000,0.000000,-0.006100
1751195534.956000,0.000000,0.000000,0.000000,-0.295850
1751195535.006000,0.000000,0.000000,0.000000,0.000000
1751195535.056000,0.000000,0.000000,0.000000,0.000000
1751195535.106000,0.000000,0.000000,0.000000,0.000000
1751195535.156000,0.000000,0.000000,0.000000,0.000000
1751195535.206000,0.000000,0.000000,0.000000,0.000000
1751195535.256000,0.000000,0.000000,0.000000,0.000000
1751195535.306000,0.000000,0.000000,0.000000,0.000000
1751195535.356000,0.000000,0.000000,0.000000,0.000000
1751195535.406000,0.000000,0.000000,0.000000,0.000000
1751195535.456000,0.000000,0.000000,0.000000,0.000000
1751195535.506000,0.000000,119.929050,0.000000,0.000000
1751195535.556000,0.000000,0.387960,0.000000,0.000000
1751195535.606000,0.000000,0.378810,0.000000,0.000000
1751195535.656000,0.000000,59.707410,0.000000,0.000000
1751195535.706000,0.000000,0.000000,0.000000,0.000000
1751195535.756000,-0.009150,119.929050,0.000000,0.000000
1751195535.806000,0.000000,0.000000,0.000000,0.000000
1751195535.856000,0.000000,0.000000,0.000000,0.000000
1751195535.906000,0.018300,0.000000,0.000000,0.000000
1751195536.006000,0.000000,0.000000,0.000000,0.000000
1751195536.056050,-0.009150,0.000000,0.000000,0.000000
1751195536.106000,-0.009150,119.929050,0.000000,0.000000
1751195536.156000,-0.009150,0.000000,0.000000,-0.003050
1751195536.206000,0.000000,0.000000,0.000000,0.000000
1751195536.256000,-270.885750,0.003660,0.000000,0.000000
1751195536.306050,-188.572350,0.000000,0.000000,0.000000
1751195536.356000,0.000000,0.000000,0.000000,0.000000
1751195536.406050,0.000000,0.007320,0.000000,0.000000
1751195536.456000,0.631350,119.929050,0.000000,0.000000
1751195536.506050,-0.009150,0.000000,0.000000,-0.006100
1751195536.556050,-0.009150,0.000000,0.000000,0.000000
1751195536.606000,0.000000,0.000000,0.000000,0.000000
1751195536.656050,-178.836750,0.000000,0.000000,0.000000
1751195536.706000,-0.832650,0.000000,0.000000,-29.978450
1751195536.756050,-0.009150,0.000000,0.000000,0.000000
1751195536.806050,0.000000,0.000000,0.000000,0.000000
1751195536.856050,0.000000,0.000000,0.000000,0.048800
1751195536.906050,0.000000,0.000000,0.000000,0.000000
1751195536.956000,3.010350,0.000000,0.000000,-0.003050
1751195537.006050,-234.102750,0.000000,0.000000,0.000000
1751195537.056050,0.000000,0.000000,0.000000,-0.003050
1751195537.106050,0.000000,0.000000,0.000000,-0.003050
1751195537.156050,0.000000,0.000000,0.000000,0.000000
1751195537.206050,0.000000,0.000000,0.000000,0.000000
1751195537.256050,0.000000,0.000000,0.000000,-2.223450
1751195537.306050,0.000000,0.000000,0.000000,0.000000
1751195537.356050,0.000000,0.000000,0.000000,-1.799500
1751195537.406050,0.000000,0.000000,0.000000,0.000000
1751195537.456050,0.000000,0.000000,0.000000,-0.003050
1751195537.506050,0.000000,0.000000,0.000000,0.000000
1751195537.556050,0.000000,0.000000,0.000000,-0.003050
1751195537.606050,-0.009150,0.000000,0.000000,0.783850
1751195537.656050,-0.018300,0.000000,0.000000,1.122400
1751195537.706050,-0.018300,0.000000,0.000000,0.918050
1751195537.806050,0.000000,0.000000,0.000000,0.905850
1751195537.856050,0.000000,0.000000,0.000000,0.000000
1751195537.906050,0.000000,0.000000,0.000000,0.000000
1751195537.956050,0.000000,0.000000,0.000000,-0.003050
1751195538.006050,0.000000,0.000000,0.000000,-0.460550
1751195538.056050,0.000000,119.929050,0.000000,0.000000
1751195538.106050,0.000000,0.000000,0.000000,0.000000
1751195538.156050,0.000000,0.000000,0.000000,0.000000
1751195538.206050,0.000000,0.000000,0.000000,0.000000
1751195538.256050,0.000000,0.000000,0.000000,0.000000
1751195538.306050,0.000000,0.000000,0.000000,0.000000
1751195538.356100,0.000000,0.000000,0.000000,0.000000
1751195538.406050,0.000000,0.000000,0.000000,0.000000
1751195538.456050,0.000000,0.373320,0.000000,0.000000
1751195538.506050,0.000000,119.929050,0.000000,0.000000
1751195549.906500,0.000000,0.000000,0.000000,0.000000
1751195549.956500,0.000000,0.000000,0.000000,0.000000
1751195550.006500,0.000000,0.000000,0.000000,0.000000
1751195550.056500,0.000000,0.000000,0.000000,0.000000
1751195550.106500,0.000000,0.000000,0.000000,0.000000
1751195550.156500,0.000000,0.000000,0.000000,0.000000
1751195550.256500,0.000000,0.000000,0.000000,0.000000
1751195550.356500,0.000000,0.000000,0.000000,0.000000
1751195550.406500,0.000000,2.951790,0.000000,0.000000
1751195550.456500,0.000000,0.000000,0.000000,0.000000
1751195550.506500,0.000000,0.000000,0.000000,0.000000
1751195550.556500,0.000000,0.000000,0.000000,0.000000
1751195550.656500,0.000000,119.929050,0.000000,0.000000
1751195550.756500,0.000000,0.000000,0.000000,0.000000
1751195550.856500,0.000000,0.000000,0.000000,0.000000
1751195550.906500,0.000000,0.000000,0.000000,0.000000
1751195550.956500,0.000000,13.576770,0.000000,0.000000
1751195551.006500,0.000000,0.000000,0.000000,0.000000
1751195551.056500,0.000000,0.000000,0.000000,0.000000
1751195551.106500,0.000000,0.000000,0.000000,0.000000
1751195551.156500,0.000000,0.000000,0.000000,0.000000
1751195551.206500,0.000000,0.000000,0.000000,0.000000
1751195551.256450,0.000000,119.929050,0.000000,0.000000
1751195551.306500,0.000000,119.929050,0.000000,0.000000
1751195551.356500,0.000000,119.929050,0.000000,0.000000
1751195551.406450,0.000000,119.929050,0.000000,0.000000
1751195551.456500,0.000000,0.000000,0.000000,0.000000
1751195551.506450,0.000000,0.000000,0.000000,0.000000
1751195551.556450,0.000000,0.000000,0.000000,0.000000
1751195551.606500,0.000000,0.000000,0.000000,0.000000
1751195551.656450,0.000000,0.000000,0.000000,0.000000
1751195551.706500,0.000000,0.000000,0.000000,0.000000
1751195551.756450,0.000000,0.000000,0.000000,0.000000
1751195551.806450,0.000000,0.000000,0.000000,0.000000
1751195551.856450,0.000000,0.000000,0.000000,0.000000
1751195551.906450,0.000000,0.000000,0.000000,0.000000
1751195551.956450,0.000000,0.000000,0.000000,0.000000
1751195552.006450,0.000000,0.000000,0.000000,0.000000
1751195552.106450,0.000000,0.005490,0.000000,0.000000
1751195552.156450,0.000000,0.000000,0.000000,0.000000
1751195552.206450,0.000000,0.000000,0.000000,0.000000
1751195552.256450,0.000000,0.000000,0.000000,0.000000
1751195552.356450,0.000000,0.000000,0.000000,0.000000
1751195552.406450,0.000000,0.000000,0.000000,0.000000
1751195552.456450,0.000000,0.062220,0.000000,0.000000
1751195552.506450,0.000000,0.005490,0.000000,0.000000
1751195552.556450,0.000000,0.020130,0.000000,0.000000
1751195552.606450,0.000000,0.000000,0.000000,0.000000
1751195552.656450,0.000000,0.000000,0.000000,0.000000
1751195552.706450,0.000000,0.000000,0.000000,0.000000
1751195552.756450,0.000000,0.000000,0.000000,0.000000
1751195552.806450,0.000000,0.000000,0.000000,0.000000
1751195552.856450,0.000000,0.000000,0.000000,0.000000
1751195552.906450,0.000000,0.000000,0.000000,0.000000
1751195552.956450,0.000000,0.000000,0.000000,0.000000
1751195553.006450,0.000000,0.000000,0.000000,0.000000
1751195553.056450,0.000000,0.000000,0.000000,0.000000
1751195553.106450,0.000000,0.000000,0.000000,0.000000
1751195553.156450,0.000000,0.000000,0.000000,0.000000
1751195553.206400,0.000000,0.003660,0.000000,0.000000
1751195553.256450,0.000000,0.003660,0.000000,0.000000
1751195553.306450,0.000000,0.000000,0.000000,0.000000
1751195553.356400,0.000000,0.000000,0.000000,0.000000
1751195553.406450,0.000000,0.000000,0.000000,0.000000
1751195553.456400,0.000000,0.000000,0.000000,0.000000
1751195553.506450,0.000000,119.929050,0.000000,0.000000
1751195553.556450,0.000000,0.000000,0.000000,0.000000
1751195553.606400,0.000000,119.929050,0.000000,0.000000
1751195553.656450,0.000000,0.000000,0.000000,0.000000
1751195553.706400,0.000000,0.000000,0.000000,0.000000
1751195553.756400,0.000000,119.929050,0.000000,0.000000
1751195553.806450,0.000000,0.000000,0.000000,0.000000
1751195553.856400,0.000000,61.176900,0.000000,0.000000
1751195553.906400,0.000000,0.000000,0.000000,0.000000
1751195553.956400,0.000000,0.000000,0.000000,0.000000
1751195554.006400,0.000000,0.000000,0.000000,0.000000
1751195554.056450,0.000000,0.000000,0.000000,0.000000
1751195554.106400,0.000000,0.000000,0.000000,0.000000
1751195554.156400,0.000000,0.000000,0.000000,0.000000
1751195554.206400,0.000000,0.000000,0.000000,0.000000
1751195554.256400,0.000000,0.000000,0.000000,0.000000
1751195554.306400,0.000000,0.000000,0.000000,0.000000
1751195554.356400,0.000000,119.929050,0.000000,0.000000
1751195554.406400,0.000000,119.929050,0.000000,0.000000
1751195554.456400,0.000000,119.929050,0.000000,0.000000
1751195554.506400,0.000000,119.929050,0.000000,0.000000
1751195554.556400,0.000000,0.982710,0.000000,0.000000
1751195554.606400,0.000000,0.988200,0.000000,0.000000
1751195554.656400,0.000000,0.000000,0.000000,0.000000
1751195554.706400,0.000000,0.000000,0.000000,0.000000
1751195554.756400,0.000000,0.000000,0.000000,0.000000
1751195554.806400,0.000000,0.000000,0.000000,0.000000
1751195554.856400,0.000000,0.000000,0.000000,0.000000
1751195554.906400,0.000000,0.000000,0.000000,0.000000
1751195554.956400,0.000000,0.000000,0.000000,0.000000
1751195555.006400,0.000000,0.000000,0.000000,0.000000
1751195555.056400,0.000000,0.000000,0.000000,0.000000
1751195555.106400,0.000000,0.000000,0.000000,0.000000
1751195555.156350,0.000000,0.000000,0.000000,0.000000
1751195555.206400,0.000000,0.000000,0.000000,0.000000
1751195555.256400,0.000000,0.000000,0.000000,0.000000
1751195555.306400,0.000000,0.000000,0.000000,0.000000
1751195555.356400,0.000000,0.000000,0.000000,0.000000
1751195555.406650,0.000000,0.000000,0.000000,0.000000
1751195555.456650,0.000000,0.000000,0.000000,0.000000
1751195555.506600,0.000000,0.000000,0.000000,0.000000
1751195555.606650,0.000000,0.000000,0.000000,0.000000
1751195555.656600,0.000000,0.000000,0.000000,0.000000
1751195555.706650,0.000000,0.000000,0.000000,0.000000
1751195555.756600,0.000000,0.000000,0.000000,0.000000
1751195555.806600,0.000000,0.000000,0.000000,0.000000
1751195555.856650,0.000000,0.000000,0.000000,0.000000
1751195555.906600,0.000000,0.000000,0.000000,0.000000
1751195555.956600,0.000000,0.000000,0.000000,0.000000
1751195556.006600,0.000000,0.000000,0.000000,0.000000
1751195556.056600,0.000000,0.000000,0.000000,0.000000
1751195556.106600,0.000000,0.000000,0.000000,0.000000
1751195556.156600,0.000000,0.000000,0.000000,0.000000
1751195556.206600,0.000000,0.000000,0.000000,0.000000
1751195556.256600,0.000000,0.000000,0.000000,0.000000
1751195556.356600,0.000000,0.000000,0.000000,0.000000
1751195556.406600,0.000000,0.000000,0.000000,0.000000
1751195556.456600,0.000000,0.000000,0.000000,0.000000
1751195556.556600,0.000000,0.000000,0.000000,0.000000
1751195556.656600,0.000000,0.000000,0.000000,0.000000
1751195556.706600,0.000000,0.000000,0.000000,0.000000
1751195556.756600,0.000000,0.000000,0.000000,0.000000
1751195556.806600,0.000000,0.000000,0.000000,0.000000
1751195556.856550,0.000000,0.000000,0.000000,0.000000
1751195556.906600,0.000000,0.000000,0.000000,0.000000
1751195556.956600,0.000000,0.000000,0.000000,0.000000
1751195557.056600,0.000000,0.000000,0.000000,0.000000
1751195557.106600,0.000000,0.000000,0.000000,0.000000
1751195557.156600,0.000000,0.000000,0.000000,0.000000
1751195557.206550,0.000000,0.000000,0.000000,0.000000
1751195557.256600,0.000000,0.000000,0.000000,0.000000
1751195557.356600,0.000000,0.000000,0.000000,0.000000
1751195557.406600,0.000000,0.000000,0.000000,0.000000
1751195557.456550,0.000000,0.000000,0.000000,0.000000
1751195557.506600,0.000000,0.000000,0.000000,0.000000
1751195557.556600,0.000000,0.000000,0.000000,0.000000
1751195557.606550,0.000000,0.000000,0.000000,0.000000
1751195557.656600,0.000000,0.000000,0.000000,0.000000
1751195557.706550,0.000000,0.000000,0.000000,0.000000
1751195557.756600,0.000000,0.000000,0.000000,0.000000
1751195557.806600,0.000000,0.000000,0.000000,0.000000
1751195557.856550,0.000000,0.000000,0.000000,0.000000
1751195557.906600,0.000000,0.000000,0.000000,0.000000
1751195557.956550,0.000000,0.000000,0.000000,0.000000
1751195558.006550,0.000000,0.000000,0.000000,0.000000
1751195558.056600,0.000000,0.000000,0.000000,0.000000
1751195558.156600,0.000000,0.000000,0.000000,0.000000
1751195558.206550,0.000000,0.000000,0.000000,0.000000
1751195558.256550,0.000000,0.000000,0.000000,0.000000
1751195558.306600,0.000000,0.000000,0.000000,0.000000
1751195558.356550,0.000000,0.000000,0.000000,0.000000
1751195558.406550,0.000000,0.000000,0.000000,0.000000
1751195558.456550,0.000000,0.000000,0.000000,0.000000
1751195558.506550,0.000000,0.000000,0.000000,0.000000
1751195558.556550,0.000000,0.000000,0.000000,0.000000
1751195558.606550,0.000000,0.000000,0.000000,0.000000
1751195558.656500,0.000000,0.000000,0.000000,0.000000
1751195558.706550,0.000000,0.000000,0.000000,0.000000
1751195558.756550,0.000000,0.000000,0.000000,0.000000
1751195558.806550,0.000000,0.000000,0.000000,0.000000
1751195558.856550,0.000000,0.000000,0.000000,0.000000
1751195558.906550,0.000000,0.000000,0.000000,0.000000
1751195558.956550,0.000000,0.000000,0.000000,0.000000
1751195559.006550,0.000000,0.000000,0.000000,0.000000
1751195559.056550,0.000000,0.000000,0.000000,0.000000
1751195559.106500,0.000000,0.000000,0.000000,0.000000
1751195559.156550,0.000000,0.000000,0.000000,0.000000
1751195559.206550,0.000000,0.000000,0.000000,0.000000
1751195559.256550,0.000000,0.000000,0.000000,0.000000
1751195559.306550,0.000000,0.000000,0.000000,0.000000
1751195559.356550,0.000000,0.000000,0.000000,0.000000
1751195559.406500,0.000000,0.000000,0.000000,0.000000
1751195559.456550,0.000000,0.000000,0.000000,0.000000
1751195559.506550,0.000000,0.000000,0.000000,0.000000
1751195559.556550,0.000000,0.000000,0.000000,0.000000
1751195559.606550,0.000000,0.000000,0.000000,0.000000
1751195559.656550,0.000000,0.000000,0.000000,0.000000
1751195559.706550,0.000000,0.000000,0.000000,0.000000
1751195559.756500,0.000000,0.000000,0.000000,0.000000
1751195559.806500,0.000000,0.000000,0.000000,0.000000
1751195559.856550,0.000000,0.000000,0.000000,0.000000
1751195559.906500,0.000000,0.000000,0.000000,0.000000
1751195559.956500,0.000000,0.000000,0.000000,0.000000
1751195560.006550,0.000000,0.000000,0.000000,0.000000
1751195560.056500,0.000000,0.000000,0.000000,0.000000
1751195560.106500,0.000000,0.000000,0.000000,0.000000
1751195560.156500,0.000000,0.000000,0.000000,0.000000
1751195560.206500,0.000000,0.000000,0.000000,0.000000
1751195560.256550,0.000000,0.000000,0.000000,0.000000
1751195560.306500,0.000000,0.000000,0.000000,0.000000
1751195560.356500,0.000000,0.000000,0.000000,0.000000
1751195560.406500,0.000000,0.000000,0.000000,0.000000
1751195560.456500,0.000000,0.000000,0.000000,0.000000
1751195560.506550,0.000000,0.000000,0.000000,0.000000
1751195560.556500,0.000000,0.000000,0.000000,0.000000
1751195560.606500,0.000000,0.000000,0.000000,0.000000
1751195560.656500,0.000000,0.000000,0.000000,0.000000
1751195560.706500,0.000000,0.000000,0.000000,0.000000
1751195560.756500,0.000000,0.000000,0.000000,0.000000
1751195560.806500,0.000000,0.000000,0.000000,0.000000
1751195560.856500,0.000000,0.000000,0.000000,0.000000
1751195560.906500,0.000000,0.000000,0.000000,0.000000
1751195560.956500,0.000000,0.000000,0.000000,0.000000
1751195561.006500,0.000000,0.000000,0.000000,0.000000
1751195561.056500,0.000000,0.000000,0.000000,0.000000
1751195561.106700,0.000000,0.000000,0.000000,0.000000
1751195561.156500,0.000000,0.000000,0.000000,0.000000
1751195561.206500,0.000000,0.000000,0.000000,0.000000
1751195561.256500,0.000000,0.000000,0.000000,0.000000
1751195561.306500,0.000000,0.000000,0.000000,0.000000
1751195561.356500,0.000000,0.000000,0.000000,0.000000
1751195561.406500,0.000000,0.000000,0.000000,0.000000
1751195561.456500,0.000000,0.000000,0.000000,0.000000
1751195561.506550,0.000000,0.000000,0.000000,0.000000
1751195561.556700,0.000000,0.000000,0.000000,0.000000
1751195561.606500,0.000000,0.000000,0.000000,0.000000
1751195561.656500,0.000000,0.000000,0.000000,0.000000
1751195561.706500,0.000000,0.000000,0.000000,0.000000
1751195561.756550,0.000000,0.000000,0.000000,0.000000
1751195561.806500,0.000000,0.000000,0.000000,0.000000
1751195561.856550,0.000000,0.000000,0.000000,0.000000
1751195561.906500,0.000000,0.000000,0.000000,0.000000
1751195561.956500,0.000000,0.000000,0.000000,0.000000
1751195562.006700,0.000000,0.000000,0.000000,0.000000
1751195562.056500,0.000000,0.000000,0.000000,0.000000
1751195562.156500,0.000000,0.000000,0.000000,0.000000
1751195562.206550,0.000000,0.000000,0.000000,0.000000
1751195562.256550,0.000000,0.000000,0.000000,0.000000
1751195562.306500,0.000000,0.000000,0.000000,0.000000
1751195562.356550,0.000000,0.000000,0.000000,0.000000
1751195562.406500,0.000000,0.000000,0.000000,0.000000
1751195562.456700,0.000000,0.000000,0.000000,0.000000
1751195562.506550,0.000000,0.000000,0.000000,0.000000
1751195562.556550,0.000000,0.000000,0.000000,0.000000
1751195562.606550,0.000000,0.000000,0.000000,0.000000
1751195562.656550,0.000000,0.000000,0.000000,0.000000
1751195562.706550,0.000000,0.000000,0.000000,0.000000
1751195562.856550,0.000000,0.000000,0.000000,0.000000
1751195562.906700,0.000000,0.000000,0.000000,0.000000
1751195562.956550,0.000000,0.000000,0.000000,0.000000
1751195563.006550,0.000000,0.000000,0.000000,0.000000
1751195563.056550,0.000000,0.000000,0.000000,0.000000
1751195563.106550,0.000000,0.000000,0.000000,0.000000
1751195563.156550,0.000000,0.000000,0.000000,0.000000
1751195563.206550,0.000000,0.000000,0.000000,0.000000
1751195563.256550,0.000000,0.000000,0.000000,0.000000
1751195563.306550,0.000000,0.000000,0.000000,0.000000
1751195563.406550,0.000000,0.000000,0.000000,0.000000
1751195563.456550,0.000000,0.000000,0.000000,0.000000
1751195563.506550,0.000000,0.000000,0.000000,0.000000
1751195563.556550,0.000000,0.000000,0.000000,0.000000
1751195563.656550,0.000000,0.000000,0.000000,-0.003050
1751195563.706550,0.000000,0.000000,0.000000,-0.003050
1751195563.756550,0.000000,0.000000,0.000000,-0.003050
1751195563.806650,0.000000,0.000000,0.000000,-0.003050
1751195563.856550,0.000000,98.289300,0.000000,-50.691000
1751195563.906550,0.000000,98.289300,0.000000,-50.691000
1751195563.956550,0.000000,98.289300,0.000000,-50.691000
1751195564.006550,0.000000,98.289300,0.000000,-50.691000
1751195564.056550,0.000000,0.000000,0.000000,0.000000
1751195564.106550,0.000000,0.000000,0.000000,0.000000
1751195564.206550,0.000000,0.000000,0.000000,0.000000
1751195564.306600,0.000000,0.000000,0.000000,-0.003050
1751195564.356550,0.000000,0.000000,0.000000,-0.003050
1751195564.406600,0.000000,0.000000,0.000000,-0.003050
1751195564.456550,0.000000,0.000000,0.000000,0.000000
1751195564.506600,0.000000,0.000000,0.000000,0.000000
1751195564.556600,0.000000,0.000000,0.000000,0.000000
1751195564.656600,0.000000,0.000000,0.000000,-0.003050
1751195564.706550,0.000000,0.000000,0.000000,-0.003050
1751195564.756550,0.000000,0.000000,0.000000,-0.003050
1751195564.806600,0.000000,0.000000,0.000000,-0.003050
1751195564.856550,0.000000,0.000000,0.000000,-0.003050
1751195564.906600,0.000000,0.000000,0.000000,-0.003050
1751195564.956550,0.000000,0.000000,0.000000,-0.003050
1751195565.006600,0.000000,0.000000,0.000000,-0.003050
1751195565.056600,0.000000,0.000000,0.000000,0.988200
1751195565.106550,0.000000,0.000000,0.000000,0.988200
1751195565.206550,0.000000,0.000000,0.000000,0.988200
1751195565.256600,0.000000,0.000000,0.000000,0.000000
1751195565.306600,0.000000,0.000000,0.000000,0.000000
1751195565.406600,0.000000,0.000000,0.000000,0.000000
1751195565.456600,0.000000,0.000000,0.000000,-99.271400
1751195565.506600,0.000000,0.000000,0.000000,-99.271400
1751195565.556600,0.000000,0.000000,0.000000,-99.271400
1751195565.606600,0.000000,0.000000,0.000000,-99.271400
1751195565.656600,0.000000,0.000000,0.000000,0.000000
1751195565.706600,0.000000,0.000000,0.000000,0.000000
1751195565.756600,0.000000,0.000000,0.000000,0.000000
1751195565.856600,0.000000,0.000000,0.000000,0.000000
1751195565.906600,0.000000,0.000000,0.000000,0.000000
1751195565.956600,0.000000,0.000000,0.000000,0.000000
1751195566.006600,0.000000,0.000000,0.000000,0.000000
1751195566.056600,0.000000,0.000000,0.000000,0.000000
1751195566.106600,0.000000,0.000000,0.000000,0.000000
1751195566.156600,0.000000,0.000000,0.000000,0.000000
1751195566.206600,0.000000,0.000000,0.000000,0.000000
1751195566.256600,0.000000,119.929050,0.000000,0.000000
1751195566.306600,0.000000,119.929050,0.000000,0.000000
1751195566.356600,0.000000,119.929050,0.000000,0.000000
1751195566.406600,0.000000,119.929050,0.000000,0.000000
1751195566.506600,0.000000,0.000000,0.000000,0.000000
1751195566.556600,0.000000,0.000000,0.000000,0.000000
1751195566.606650,0.000000,0.000000,0.000000,0.000000
1751195566.656600,0.000000,0.000000,0.000000,0.000000
1751195566.756600,0.000000,0.000000,0.000000,0.000000
1751195566.806600,0.000000,0.000000,0.000000,0.000000
1751195566.906600,0.000000,5.623590,0.000000,-0.003050
1751195566.956650,0.000000,5.623590,0.000000,-0.003050
1751195567.006600,0.000000,5.623590,0.000000,-0.003050
1751195567.056600,0.000000,119.929050,0.000000,0.000000
1751195567.106650,0.000000,119.929050,0.000000,0.000000
1751195567.156600,0.000000,119.929050,0.000000,0.000000
1751195567.206650,0.000000,119.929050,0.000000,0.000000
1751195567.256600,0.000000,119.929050,0.000000,-0.003050
1751195567.306650,0.000000,119.929050,0.000000,-0.003050
1751195567.356650,0.000000,119.929050,0.000000,-0.003050
1751195567.406600,0.000000,119.929050,0.000000,-0.003050
1751195567.456650,0.000000,0.000000,0.000000,51.529750
1751195567.506600,0.000000,0.000000,0.000000,51.529750
1751195567.556650,0.000000,0.000000,0.000000,51.529750
1751195567.606650,0.000000,0.000000,0.000000,51.529750
1751195567.656650,0.000000,0.000000,0.000000,0.000000
1751195567.706650,0.000000,0.000000,0.000000,0.000000
1751195567.756650,0.000000,0.000000,0.000000,0.000000
1751195567.806650,0.000000,0.000000,0.000000,0.000000
1751195567.856650,0.000000,119.929050,0.000000,0.000000
1751195567.906650,0.000000,119.929050,0.000000,0.000000
1751195567.956650,0.000000,119.929050,0.000000,0.000000
1751195568.006650,0.000000,119.929050,0.000000,0.000000
1751195568.056650,0.000000,119.929050,0.000000,0.000000
1751195568.106650,0.000000,119.929050,0.000000,0.000000
1751195568.156650,0.000000,119.929050,0.000000,0.000000
1751195568.206650,0.000000,119.929050,0.000000,0.000000
1751195568.256650,0.000000,0.000000,0.000000,0.000000
1751195568.306650,0.000000,0.000000,0.000000,0.000000
1751195568.356650,0.000000,0.000000,0.000000,0.000000
1751195568.406650,0.000000,0.000000,0.000000,0.000000
1751195568.456650,0.000000,0.000000,0.000000,0.000000
1751195568.506650,0.000000,0.000000,0.000000,0.000000
1751195568.556650,0.000000,4.029660,0.000000,-0.003050
1751195568.606650,0.000000,4.029660,0.000000,-0.003050
1751195568.656650,0.000000,0.000000,0.000000,0.000000
1751195568.706650,0.000000,0.000000,0.000000,0.000000
1751195568.756650,0.000000,0.000000,0.000000,0.000000
1751195568.806650,0.000000,0.000000,0.000000,0.000000
1751195568.856650,0.000000,0.000000,0.000000,0.000000
1751195568.906650,0.000000,0.000000,0.000000,0.000000
1751195568.956650,-0.009150,0.086010,0.000000,0.000000
1751195569.006650,-0.009150,0.093330,0.000000,0.000000
1751195569.056650,0.000000,0.098820,0.000000,0.000000
1751195569.106650,0.000000,0.096990,0.000000,0.000000
1751195569.156700,0.000000,0.087840,0.000000,0.000000
1751195569.206650,0.000000,0.082350,0.000000,0.000000
1751195569.256650,0.000000,0.093330,0.000000,0.000000
1751195569.306650,-190.045500,0.082350,0.000000,0.000000
1751195569.356650,0.000000,0.000000,0.000000,-0.003050
1751195569.406700,0.000000,0.000000,0.000000,-0.003050
1751195569.456650,0.000000,0.000000,0.000000,-0.003050
1751195569.506700,0.000000,0.000000,0.000000,-0.003050
1751195569.556650,0.000000,0.000000,0.000000,-0.003050
1751195569.606650,0.000000,0.000000,0.000000,-0.003050
1751195569.656700,0.000000,0.000000,0.000000,-0.003050
1751195569.706650,0.000000,119.929050,0.000000,-0.003050
1751195569.756700,0.000000,0.000000,0.000000,-0.003050
1751195569.806650,0.000000,119.929050,0.000000,-0.003050
1751195569.856700,0.000000,0.000000,0.000000,-34.239300
1751195569.906700,0.000000,0.000000,0.000000,-34.239300
1751195569.956700,0.000000,0.000000,0.000000,6.319600
1751195570.006700,0.000000,0.000000,0.000000,6.319600
1751195570.056650,0.000000,0.000000,0.000000,6.319600
1751195570.106700,0.000000,0.367830,0.000000,0.000000
1751195570.156700,0.000000,0.000000,0.000000,0.000000
1751195570.206700,0.000000,0.000000,0.000000,0.000000
1751195570.256700,0.000000,0.000000,0.000000,0.000000
1751195570.306650,0.000000,96.938760,0.000000,0.000000
1751195570.356700,0.000000,0.000000,0.000000,0.000000
1751195570.406700,0.000000,119.929050,0.000000,0.000000
1751195570.456700,0.000000,0.000000,0.000000,0.000000
1751195570.506700,0.000000,0.000000,0.000000,0.000000
1751195570.556700,0.000000,0.000000,0.000000,0.000000
1751195570.606700,0.000000,73.450710,0.000000,0.000000
1751195570.656700,0.000000,0.000000,0.000000,0.000000
1751195570.706700,0.000000,0.000000,0.000000,0.000000
1751195570.756700,0.000000,0.000000,0.000000,0.000000
1751195570.806700,0.000000,0.000000,0.000000,0.000000
1751195570.856700,0.000000,0.000000,0.000000,0.000000
1751195570.906700,0.000000,0.000000,0.000000,0.000000
1751195570.956700,0.000000,5.210010,0.000000,0.000000
1751195571.006700,0.000000,0.000000,0.000000,0.000000
1751195571.056700,0.000000,0.000000,0.000000,0.000000
1751195571.106700,0.000000,0.000000,0.000000,0.000000
1751195571.156700,0.000000,0.000000,0.000000,0.000000
1751195571.206700,0.000000,0.000000,0.000000,0.000000
1751195571.256700,0.000000,0.000000,0.000000,0.000000
1751195571.306700,0.000000,0.000000,0.000000,0.000000
1751195571.356700,0.000000,0.000000,0.000000,0.000000
1751195571.406700,0.000000,7.243140,0.000000,0.000000
1751195571.456700,0.000000,119.929050,0.000000,0.000000
1751195571.506700,0.000000,0.000000,0.000000,0.000000
1751195571.556700,0.000000,0.000000,0.000000,0.000000
1751195571.606700,0.000000,119.929050,0.000000,0.000000
1751195571.656700,0.000000,0.000000,0.000000,0.000000
1751195571.756700,0.000000,0.000000,0.000000,0.000000
1751195571.806700,0.000000,0.000000,0.000000,0.000000
1751195571.856700,0.000000,0.000000,0.000000,0.000000
1751195571.906700,0.000000,0.000000,0.000000,0.000000
1751195571.956750,0.000000,0.000000,0.000000,0.000000
1751195572.006700,0.000000,0.000000,0.000000,0.000000
1751195572.056750,0.000000,0.000000,0.000000,0.000000
1751195572.106700,0.000000,0.000000,0.000000,0.000000
1751195572.206750,0.000000,0.000000,0.000000,0.000000
1751195572.256700,0.000000,0.000000,0.000000,0.000000
1751195572.306750,0.000000,0.000000,0.000000,0.000000
1751195572.356700,0.000000,119.929050,0.000000,0.000000
1751195572.406750,0.000000,119.929050,0.000000,0.000000
1751195572.456750,0.000000,119.929050,0.000000,0.000000
1751195572.506750,0.000000,119.929050,0.000000,0.000000
1751195572.556750,0.000000,119.929050,0.000000,0.000000
1751195572.656750,0.000000,0.000000,0.000000,0.000000
1751195572.706750,0.000000,0.000000,0.000000,0.000000
1751195572.756750,0.000000,0.000000,0.000000,0.000000
1751195572.806750,0.000000,0.000000,0.000000,0.000000
1751195572.856750,0.000000,0.000000,0.000000,0.000000
1751195572.906750,0.000000,0.000000,0.000000,0.000000
1751195572.956750,0.000000,0.000000,0.000000,0.000000
1751195573.006750,0.000000,0.000000,0.000000,0.000000
1751195573.106750,0.000000,0.000000,0.000000,0.000000
1751195573.156750,0.000000,0.000000,0.000000,0.000000
1751195573.206750,0.000000,0.000000,0.000000,0.000000
1751195573.256750,0.000000,0.000000,0.000000,0.000000
1751195573.306750,0.000000,0.000000,0.000000,0.000000
1751195573.356750,0.000000,0.000000,0.000000,0.000000
1751195573.406750,0.000000,0.000000,0.000000,0.000000
1751195573.456750,0.000000,119.929050,0.000000,0.000000
1751195573.556750,0.000000,0.000000,0.000000,0.000000
1751195573.606750,-32.006700,119.929050,0.000000,0.000000
1751195573.656750,0.000000,0.000000,0.000000,0.000000
1751195573.706750,0.000000,0.000000,0.000000,0.000000
1751195573.756750,0.000000,0.000000,0.000000,0.000000
1751195573.806750,0.000000,0.000000,0.000000,0.000000
1751195573.856750,0.027450,0.000000,0.000000,0.000000
1751195573.906750,-0.009150,0.000000,0.000000,0.000000
1751195574.006750,0.000000,0.000000,0.000000,0.000000
1751195574.056750,-0.009150,0.000000,0.000000,0.000000
1751195574.106750,0.000000,0.000000,0.000000,0.000000
1751195574.156750,0.000000,0.000000,0.000000,0.000000
1751195574.206750,-1.994700,119.929050,0.000000,0.000000
1751195574.256750,-0.009150,0.000000,0.000000,0.000000
1751195574.306750,-0.009150,0.000000,0.000000,0.000000
1751195574.356800,0.000000,0.000000,0.000000,0.000000
1751195574.456750,-0.009150,1.187670,0.000000,0.000000
1751195574.506750,-0.009150,0.000000,0.000000,0.000000
1751195574.556750,-0.009150,0.000000,0.000000,0.000000
1751195574.606800,-0.009150,119.929050,0.000000,0.000000
1751195574.656750,-0.009150,77.247960,0.000000,0.000000
1751195574.706750,-0.009150,0.000000,0.000000,0.000000
1751195574.756750,0.000000,0.000000,0.000000,0.000000
1751195574.806750,0.000000,0.000000,0.000000,0.000000
1751195574.856800,0.000000,0.000000,0.000000,0.000000
1751195574.906750,-0.009150,0.000000,0.000000,0.000000
1751195574.956800,0.000000,0.000000,0.000000,0.000000
1751195575.006750,0.000000,0.000000,0.000000,0.000000
1751195575.106800,0.000000,0.000000,0.000000,0.000000
1751195575.156750,0.000000,0.000000,0.000000,0.000000
1751195575.256750,0.000000,0.000000,0.000000,0.000000
1751195575.306800,0.000000,0.000000,0.000000,0.000000
1751195575.356800,0.000000,0.000000,0.000000,0.000000
1751195575.406750,0.000000,88.125480,0.000000,0.000000
1751195575.456800,0.000000,119.929050,0.000000,0.000000
1751195575.556800,-0.009150,0.000000,0.000000,0.000000
1751195575.606800,0.000000,0.000000,0.000000,0.000000
1751195575.656800,0.000000,0.000000,0.000000,0.000000
1751195575.706800,0.000000,0.000000,0.000000,0.000000
1751195575.756750,-0.009150,0.000000,0.000000,0.000000
1751195575.806800,-0.009150,0.000000,0.000000,0.000000
1751195575.856800,-0.009150,0.000000,0.000000,0.000000
1751195575.906800,0.494100,0.000000,0.000000,0.000000
1751195576.006800,0.027450,0.000000,0.000000,0.000000
1751195576.056800,-0.009150,119.929050,0.000000,0.000000
1751195576.106800,0.000000,0.000000,0.000000,0.000000
1751195576.156800,0.000000,0.000000,0.000000,0.000000
1751195576.206800,128.026800,0.000000,0.000000,0.000000
1751195576.256800,0.000000,119.929050,0.000000,0.000000
1751195576.306800,0.000000,0.000000,0.000000,0.000000
1751195576.356800,0.000000,0.000000,0.000000,0.000000
1751195576.456800,-0.009150,0.000000,0.000000,0.000000
1751195576.506800,0.000000,0.000000,0.000000,0.000000
1751195576.556800,-0.009150,0.000000,0.000000,0.000000
1751195576.606800,0.000000,0.000000,0.000000,0.000000
1751195576.656800,0.000000,0.000000,0.000000,0.000000
1751195576.706800,0.000000,0.000000,0.000000,0.000000
1751195576.756800,0.000000,0.000000,0.000000,0.000000
1751195576.806800,-0.009150,0.000000,0.000000,0.000000
1751195576.856800,72.907200,0.000000,0.000000,0.000000
1751195576.906850,0.000000,119.929050,0.000000,0.000000
1751195577.006800,-7.997100,119.929050,0.000000,0.000000
1751195577.106800,0.000000,0.000000,0.000000,0.000000
1751195577.156850,0.000000,0.000000,0.000000,0.000000
1751195577.206800,0.000000,119.929050,0.000000,0.000000
1751195577.256800,0.000000,0.000000,0.000000,0.000000
1751195577.306800,-0.009150,0.000000,0.000000,0.000000
1751195577.356800,0.000000,109.293090,0.000000,0.000000
1751195577.406850,0.000000,0.000000,0.000000,0.000000
1751195577.456800,-0.018300,0.000000,0.000000,0.000000
1751195577.506800,0.000000,92.451600,0.000000,0.000000
1751195577.606800,0.000000,0.000000,0.000000,0.000000
1751195577.656850,0.000000,0.000000,0.000000,0.000000
1751195577.706800,-84.491100,0.000000,0.000000,0.000000
1751195577.756850,-0.009150,0.000000,0.000000,0.000000
1751195577.806800,0.000000,0.000000,0.000000,0.000000
1751195577.906850,0.000000,0.000000,0.000000,0.000000
1751195577.956800,0.000000,0.000000,0.000000,0.000000
1751195578.006850,0.000000,0.000000,0.000000,0.000000
1751195578.056850,0.000000,0.000000,0.000000,0.000000
1751195578.106850,0.000000,0.000000,0.000000,0.000000
1751195578.206850,0.000000,0.237900,0.000000,0.000000
1751195591.307050,0.000000,0.000000,0.000000,0.000000
1751195591.407300,0.000000,0.000000,0.000000,-0.003050
1751195591.557300,0.000000,0.000000,0.000000,0.000000
1751195591.707300,0.000000,0.000000,0.000000,-0.003050
1751195591.857300,0.000000,0.000000,0.000000,0.000000
1751195591.957300,0.000000,0.000000,0.000000,-0.003050
1751195592.057300,0.000000,0.000000,0.000000,0.000000
1751195592.207300,0.000000,0.000000,0.000000,0.000000
1751195592.307300,0.000000,0.000000,0.000000,0.000000
1751195592.407300,0.000000,0.000000,0.000000,13.429150
1751195592.457300,0.000000,0.000000,0.000000,-0.003050
1751195592.507300,0.000000,0.000000,0.000000,0.000000
1751195592.857250,0.000000,0.000000,0.000000,0.372100
1751195592.907300,0.000000,0.000000,0.000000,0.000000
1751195593.007300,0.000000,0.000000,0.000000,0.000000
1751195593.057300,0.000000,0.000000,0.000000,0.000000
1751195593.107250,0.000000,0.000000,0.000000,-16.948850
1751195593.157300,0.000000,0.000000,0.000000,-0.003050
1751195593.207300,0.000000,0.000000,0.000000,0.000000
1751195593.407300,0.000000,0.000000,0.000000,0.003050
1751195593.457300,0.000000,0.000000,0.000000,-0.003050
1751195593.507250,0.000000,0.000000,0.000000,0.000000
1751195593.557300,0.000000,0.000000,0.000000,0.000000
1751195593.607250,0.000000,0.000000,0.000000,0.741150
1751195593.757250,0.000000,0.000000,0.000000,0.000000
1751195593.857250,0.000000,0.000000,0.000000,0.000000
1751195593.907300,0.000000,0.000000,0.000000,-0.003050
1751195593.957300,0.000000,0.000000,0.000000,0.000000
1751195594.107250,0.000000,0.000000,0.000000,0.000000
1751195594.357250,0.000000,119.929050,0.000000,53.225550
1751195594.507250,-0.009150,0.001830,0.000000,86.299750
1751195594.557250,-0.009150,0.001830,0.000000,0.000000
1751195594.657250,0.000000,0.000000,0.000000,-16.775000
1751195594.707250,0.000000,0.000000,0.000000,0.000000
1751195594.807250,0.000000,0.000000,0.000000,84.768650
1751195594.907250,0.000000,0.000000,0.000000,-0.234850
1751195595.107250,8.427150,0.000000,0.000000,0.000000
1751195595.257250,-0.009150,119.929050,0.000000,-0.003050
1751195595.307200,-0.009150,119.929050,0.000000,-0.003050
1751195595.607250,-0.494100,0.000000,0.000000,0.000000
1751195595.657250,0.000000,107.488710,0.000000,0.000000
1751195595.707200,0.000000,107.488710,0.000000,0.000000
1751195595.807200,0.000000,107.488710,0.000000,0.000000
1751195595.857250,222.152850,0.000000,0.000000,0.000000
1751195596.057200,0.000000,0.000000,0.000000,-0.003050
1751195596.157250,0.000000,0.000000,0.000000,0.000000
1751195596.207200,0.000000,0.000000,0.000000,9.555650
1751195596.257250,0.000000,119.929050,0.000000,9.406200
1751195596.307200,0.000000,119.929050,0.000000,10.095500
1751195596.357200,0.000000,119.929050,0.000000,8.985300
1751195596.557200,0.000000,119.929050,0.000000,0.000000
1751195596.657250,-0.009150,0.003660,0.000000,-0.003050
1751195596.707200,-0.009150,0.003660,0.000000,0.000000
1751195596.757250,-0.009150,0.003660,0.000000,0.000000
1751195596.807200,-0.009150,0.003660,0.000000,0.000000
1751195596.857200,-23.826600,0.000000,0.000000,0.000000
1751195596.907200,-23.826600,0.000000,0.000000,-92.704750
1751195596.957200,0.000000,0.000000,0.000000,0.000000
1751195597.057200,0.000000,0.000000,0.000000,0.000000
1751195597.107200,0.000000,0.000000,0.000000,0.000000
1751195597.157200,0.000000,0.000000,0.000000,-0.003050
1751195597.207200,0.000000,0.000000,0.000000,0.000000
1751195597.307200,-141.129600,6.331800,0.000000,0.021350
1751195597.357200,-141.129600,6.331800,0.000000,-0.024400
1751195597.557200,299.516100,6.333630,0.000000,0.003050
1751195597.657200,-82.176150,6.333630,0.000000,-0.003050
1751195597.807200,-82.176150,6.333630,0.000000,-0.006100
1751195597.857200,135.282750,6.333630,0.000000,-0.045750
1751195597.907450,135.282750,6.333630,0.000000,0.048800
1751195597.957200,135.282750,6.333630,0.000000,0.033550
1751195598.007400,135.282750,6.333630,0.000000,-0.067100
1751195598.357400,131.531250,6.331800,0.000000,0.024400
1751195598.407450,131.531250,6.331800,0.000000,0.048800
1751195598.457450,-294.163350,6.331800,0.000000,0.036600
1751195598.507450,-294.163350,6.331800,0.000000,-0.021350
1751195598.557450,-294.163350,6.331800,0.000000,0.039650
1751195598.607400,-294.163350,6.331800,0.000000,-0.030500
1751195598.657400,-196.166850,6.333630,0.000000,-0.039650
1751195598.707450,-196.166850,6.333630,0.000000,-0.003050
1751195598.907450,20.294700,6.333630,0.000000,-0.039650
1751195598.957450,20.294700,6.333630,0.000000,-0.064050
1751195599.057400,236.253000,6.333630,0.000000,0.018300
1751195599.107400,236.253000,6.333630,0.000000,-0.070150
1751195599.207450,236.253000,6.333630,0.000000,0.024400
1751195599.407450,-147.433950,6.333630,0.000000,-0.033550
1751195599.507400,67.527000,6.333630,0.000000,-0.018300
1751195599.707400,283.494450,6.333630,0.000000,0.039650
1751195599.807400,283.494450,6.333630,0.000000,0.003050
1751195599.857400,-101.702250,6.333630,0.000000,-0.015250
1751195599.957400,-101.702250,6.333630,0.000000,0.042700
1751195600.007400,-101.702250,6.333630,0.000000,-0.067100
1751195600.057400,113.761950,6.333630,0.000000,0.000000
1751195600.157400,113.761950,6.333630,0.000000,0.006100
1751195600.257400,-271.425600,6.333630,0.000000,-0.024400
1751195600.307400,-271.425600,6.333630,0.000000,0.027450
1751195600.407400,-271.425600,6.333630,0.000000,-0.009150
1751195600.657400,-261.186750,6.331800,0.000000,0.024400
1751195600.707400,-261.186750,6.331800,0.000000,0.021350
1751195600.757400,-261.186750,6.331800,0.000000,0.024400
1751195600.807400,-261.186750,6.331800,0.000000,-0.009150
1751195600.857400,-95.727300,6.331800,0.000000,0.000000
1751195600.957400,-95.727300,6.331800,0.000000,-0.030500
1751195601.057350,69.732150,6.331800,0.000000,-0.061000
1751195601.257400,234.697500,6.331800,0.000000,-0.070150
1751195601.307350,234.697500,6.331800,0.000000,-0.024400
1751195601.507400,-188.453400,6.333630,0.000000,-0.094550
1751195601.557350,-188.453400,6.333630,0.000000,-0.015250
1751195601.607350,-188.453400,6.333630,0.000000,-0.067100
1751195601.657400,24.009600,6.333630,0.000000,-0.039650
1751195601.707400,24.009600,6.333630,0.000000,0.000000
1751195601.757350,24.009600,6.333630,0.000000,0.024400
1751195601.857350,223.598550,6.331800,0.000000,-0.033550
1751195601.907400,223.598550,6.331800,0.000000,0.036600
1751195602.007350,223.598550,6.331800,0.000000,0.009150
1751195602.057350,-206.597850,6.331800,0.000000,0.042700
1751195602.207350,-206.597850,6.331800,0.000000,0.045750
1751195602.257350,260.729250,6.339120,0.000000,0.024400
1751195602.307350,260.729250,6.339120,0.000000,0.051850
1751195602.357350,260.729250,6.339120,0.000000,0.006100
1751195602.407350,260.729250,6.339120,0.000000,0.051850
1751195602.457350,-275.561400,6.335460,0.000000,0.018300
1751195602.557350,-275.561400,6.335460,0.000000,-0.015250
1751195602.707350,167.161350,6.337290,0.000000,0.030500
1751195602.757350,167.161350,6.337290,0.000000,0.003050
1751195602.857350,-84.033600,6.337290,0.000000,-0.057950
1751195602.907350,-84.033600,6.337290,0.000000,0.018300
1751195602.957350,-84.033600,6.337290,0.000000,-0.076250
1751195603.107350,-208.501050,6.333630,0.000000,0.012200
1751195603.207350,-208.501050,6.333630,0.000000,-0.009150
1751195603.257350,274.884300,6.329970,0.000000,-0.006100
1751195603.407350,274.884300,6.329970,0.000000,-0.051850
1751195603.457350,-67.600200,6.328140,0.000000,-0.048800
1751195603.507350,-67.600200,6.328140,0.000000,-0.015250
1751195603.607350,-67.600200,6.328140,0.000000,-0.018300
1751195603.757350,3.156750,0.000000,0.000000,0.000000
1751195603.807350,3.156750,0.000000,0.000000,0.000000
1751195603.907350,3.156750,0.000000,0.000000,0.000000
1751195603.957350,0.000000,0.000000,0.000000,0.000000
1751195604.057350,-78.360600,0.000000,0.000000,0.000000
1751195604.107350,-78.360600,0.000000,0.000000,0.000000
1751195604.157300,-78.360600,0.000000,0.000000,0.000000
1751195604.207350,0.000000,0.000000,0.000000,0.000000
1751195604.257350,0.000000,0.000000,0.000000,0.000000
1751195604.357350,0.000000,0.000000,0.000000,-0.009150
1751195604.457350,-0.009150,0.000000,0.000000,-0.027450
1751195604.507300,-0.009150,0.000000,0.000000,-0.024400
1751195604.557350,-0.009150,0.000000,0.000000,-0.030500
1751195604.607350,-0.009150,0.000000,0.000000,-0.027450
1751195604.707350,0.000000,0.000000,0.000000,-0.030500
1751195604.757300,0.000000,0.000000,0.000000,-0.033550
1751195604.857350,0.000000,0.000000,0.000000,-0.061000
1751195604.907350,0.000000,0.000000,0.000000,-0.045750
1751195604.957350,0.000000,0.000000,0.000000,-0.064050
1751195605.007300,0.000000,0.000000,0.000000,-0.048800
1751195605.057350,-0.009150,0.000000,0.000000,-0.033550
1751195605.107350,-0.009150,0.000000,0.000000,-0.054900
1751195605.157350,-0.009150,0.000000,0.000000,-0.006100
1751195605.357350,0.000000,0.000000,0.000000,0.000000
1751195605.407350,0.000000,0.000000,0.000000,0.000000
1751195605.457350,0.000000,0.000000,0.000000,-12.669700
1751195605.507350,0.000000,0.000000,0.000000,-0.003050
1751195605.607350,0.000000,0.000000,0.000000,-0.003050
1751195605.757350,2.159400,0.000000,0.000000,0.000000
1751195605.807350,2.159400,0.000000,0.000000,0.000000
1751195605.857350,0.000000,0.000000,0.000000,0.000000
1751195605.907350,-0.009150,0.000000,0.000000,0.000000
1751195605.957350,0.000000,0.000000,0.000000,0.000000
1751195606.057350,-0.009150,119.929050,0.000000,13.008250
1751195606.107350,-0.009150,0.000000,0.000000,13.008250
1751195606.157400,0.000000,0.000000,0.000000,0.000000
1751195606.207350,0.000000,0.000000,0.000000,0.000000
1751195606.307350,0.000000,0.000000,0.000000,0.000000
1751195606.357350,6.331800,68.485920,0.000000,3.165900
1751195606.407400,6.331800,0.000000,0.000000,3.165900
1751195606.607350,6.331800,0.000000,0.000000,3.165900
1751195606.657400,0.000000,0.000000,0.000000,0.000000
1751195606.707550,0.000000,0.000000,0.000000,0.000000
1751195606.907400,0.000000,119.929050,0.000000,0.000000
1751195606.957350,0.000000,0.000000,0.000000,-0.003050
1751195607.007400,0.000000,0.000000,0.000000,-0.003050
1751195607.057350,0.000000,0.000000,0.000000,-0.003050
1751195607.107400,0.000000,0.000000,0.000000,-0.003050
1751195607.157550,0.000000,0.000000,0.000000,-0.003050
1751195607.207400,0.000000,0.000000,0.000000,-0.003050
1751195607.257400,0.000000,119.929050,0.000000,0.000000
1751195607.357400,0.000000,0.000000,0.000000,0.000000
1751195607.457400,0.000000,119.929050,0.000000,0.057950
1751195607.557400,0.000000,0.000000,0.000000,0.000000
1751195607.607550,0.000000,0.000000,0.000000,0.000000
1751195607.657400,0.000000,0.000000,0.000000,0.000000
1751195607.757400,0.000000,0.000000,0.000000,0.000000
1751195607.807400,0.000000,0.000000,0.000000,0.000000
1751195607.857400,-0.118950,0.000000,0.000000,0.000000
1751195607.957400,0.000000,0.000000,0.000000,0.000000
1751195608.157400,0.000000,0.000000,0.000000,-6.542250
1751195608.307400,0.000000,0.000000,0.000000,0.000000
1751195608.357400,-0.009150,0.000000,0.000000,0.000000
1751195608.407400,0.000000,0.000000,0.000000,0.000000
1751195608.457400,203.166600,0.000000,0.000000,0.000000
1751195608.507500,0.000000,0.000000,0.000000,0.000000
1751195608.557400,0.000000,0.000000,0.000000,0.000000
1751195608.607400,-0.009150,0.000000,0.000000,0.000000
1751195608.707450,-0.009150,0.000000,0.000000,0.000000
1751195608.757400,0.000000,0.000000,0.000000,0.000000
1751195608.807400,-0.009150,0.000000,0.000000,0.000000
1751195608.907400,0.000000,0.000000,0.000000,0.000000
1751195609.007400,-0.009150,0.000000,0.000000,0.000000
1751195609.057450,-0.009150,0.000000,0.000000,0.000000
1751195609.207450,0.000000,0.000000,0.000000,0.000000
1751195609.357400,87.657000,0.000000,0.000000,0.000000
1751195609.657450,0.000000,0.000000,0.000000,-0.003050
1751195609.857400,-0.009150,0.000000,0.000000,-0.003050
1751195609.907450,-249.035550,0.047580,0.000000,-0.003050
1751195609.957450,-0.009150,0.031110,0.000000,-0.003050
1751195610.007450,-0.009150,0.000000,0.000000,-0.003050
1751195610.057450,0.000000,0.000000,0.000000,0.000000
1751195610.107450,0.000000,0.000000,0.000000,0.000000
1751195610.207450,-0.009150,0.000000,0.000000,0.000000
1751195610.257500,0.000000,0.000000,0.000000,0.000000
1751195610.307450,0.000000,0.000000,0.000000,0.000000
1751195610.357450,0.000000,0.000000,0.000000,0.000000
1751195610.457450,0.000000,0.000000,0.000000,-0.003050
1751195610.507450,-212.993700,0.000000,0.000000,-0.003050
1751195610.607450,0.000000,0.000000,0.000000,-0.003050
1751195610.657450,0.000000,0.000000,0.000000,0.000000
1751195610.707450,0.000000,0.000000,0.000000,0.000000
1751195610.757450,0.000000,0.000000,0.000000,0.000000
1751195610.807450,0.000000,0.000000,0.000000,0.000000
1751195610.957450,-0.009150,0.000000,0.000000,0.000000
1751195611.157450,-0.009150,0.000000,0.000000,0.000000
1751195611.307450,-0.009150,0.000000,0.000000,0.000000
1751195611.357450,0.000000,0.000000,0.000000,0.000000
1751195611.407450,0.000000,0.009150,0.000000,0.000000
1751195611.507500,-0.009150,0.000000,0.000000,0.000000
1751195611.557450,0.000000,0.000000,0.000000,0.000000
1751195611.657450,-0.009150,0.000000,0.000000,-0.009150
1751195611.707450,0.000000,0.000000,0.000000,-0.009150
1751195611.807450,0.000000,0.000000,0.000000,-0.009150
1751195611.857500,0.000000,0.000000,0.000000,0.000000
1751195611.907450,0.000000,0.000000,0.000000,0.000000
1751195611.957500,0.000000,0.000000,0.000000,0.000000
1751195612.007500,-0.009150,0.000000,0.000000,0.000000
1751195612.057450,0.000000,0.000000,0.000000,0.000000
1751195612.107500,0.000000,0.029280,0.000000,0.000000
1751195612.157450,0.000000,0.038430,0.000000,0.000000
1751195612.207500,160.555050,0.000000,0.000000,0.000000
1751195612.257500,0.000000,0.089670,0.000000,-0.003050
1751195612.307500,0.000000,0.040260,0.000000,-0.003050
1751195612.357500,-0.009150,0.000000,0.000000,-0.003050
1751195612.407450,-0.009150,0.124440,0.000000,-0.003050
1751195612.457500,0.000000,0.131760,0.000000,-0.003050
1751195612.507500,0.000000,0.000000,0.000000,-0.003050
1751195612.707500,-0.009150,1.473150,0.000000,0.000000
1751195612.757500,0.000000,119.929050,0.000000,0.000000
1751195612.857500,0.000000,0.000000,0.000000,0.000000
1751195612.907500,-0.009150,0.000000,0.000000,0.000000
1751195613.007500,0.000000,0.000000,0.000000,0.000000
1751195613.057500,0.000000,119.929050,0.000000,0.000000
1751195613.207500,0.000000,0.000000,0.000000,0.000000
1751195613.357500,0.000000,0.000000,0.000000,0.000000
1751195613.407500,0.000000,0.000000,0.000000,0.000000
1751195613.457500,-0.009150,119.929050,0.000000,0.000000
1751195613.557500,0.000000,0.001830,0.000000,0.000000
1751195613.607500,0.000000,119.929050,0.000000,0.000000
1751195613.757550,0.000000,0.000000,0.000000,6.337900
1751195613.807500,0.000000,0.000000,0.000000,6.337900
1751195613.907500,0.000000,0.000000,0.000000,6.337900
1751195613.957500,0.000000,0.000000,0.000000,6.337900
1751195614.007550,0.000000,0.000000,0.000000,6.337900
1751195614.157550,0.000000,0.000000,0.000000,6.337900
1751195614.257500,0.000000,0.000000,0.000000,6.337900
1751195614.357500,0.000000,0.000000,0.000000,6.337900
1751195614.407550,0.000000,0.000000,0.000000,6.337900
1751195614.457500,0.000000,0.000000,0.000000,6.337900
1751195614.557550,0.000000,0.000000,0.000000,6.337900
1751195614.607500,0.000000,0.000000,0.000000,6.337900
1751195614.807550,0.000000,0.000000,0.000000,6.337900
1751195614.857550,0.000000,0.000000,0.000000,6.337900
1751195614.907550,0.000000,0.000000,0.000000,6.337900
1751195614.957500,0.000000,0.000000,0.000000,6.337900
1751195615.007550,0.000000,0.000000,0.000000,6.337900
1751195615.057550,0.000000,0.000000,0.000000,6.337900
1751195615.107550,0.000000,0.000000,0.000000,6.337900
1751195615.207550,0.000000,0.000000,0.000000,6.337900
1751195615.257550,0.000000,0.000000,0.000000,6.337900
1751195615.357550,0.000000,0.000000,0.000000,6.337900
1751195615.407550,0.000000,0.000000,0.000000,6.337900
1751195615.457550,0.000000,0.000000,0.000000,6.337900
1751195615.507550,0.000000,0.000000,0.000000,6.337900
1751195615.557550,0.000000,0.000000,0.000000,6.337900
1751195615.657550,0.000000,0.000000,0.000000,6.337900
1751195615.707550,0.000000,0.000000,0.000000,6.337900
1751195615.807550,0.000000,0.000000,0.000000,6.337900
1751195615.857550,0.000000,0.000000,0.000000,6.337900
1751195615.957550,0.000000,0.000000,0.000000,6.337900
1751195616.057550,0.000000,0.000000,0.000000,6.337900
1751195616.107550,0.000000,0.000000,0.000000,6.337900
1751195616.207550,0.000000,0.000000,0.000000,6.337900
1751195616.257550,0.000000,0.000000,0.000000,6.337900
1751195616.307550,0.000000,0.000000,0.000000,6.337900
1751195616.357550,0.000000,0.000000,0.000000,6.337900
1751195616.407550,0.000000,0.000000,0.000000,6.337900
1751195616.457550,0.000000,0.000000,0.000000,6.337900
1751195616.507550,0.000000,0.000000,0.000000,6.337900
1751195616.557550,0.000000,0.000000,0.000000,6.337900
1751195616.607550,0.000000,0.000000,0.000000,6.337900
1751195616.657550,0.000000,0.000000,0.000000,6.337900
1751195616.857550,0.000000,0.000000,0.000000,6.337900
1751195616.907550,0.000000,0.000000,0.000000,6.337900
1751195617.007550,0.000000,0.000000,0.000000,6.337900
1751195617.107550,0.000000,0.000000,0.000000,6.435500
1751195617.357600,0.000000,0.000000,0.000000,6.435500
1751195617.407600,0.000000,0.000000,0.000000,6.435500
1751195617.507550,0.000000,0.000000,0.000000,6.432450
1751195617.557600,0.000000,0.000000,0.000000,6.432450
1751195617.757550,0.000000,0.000000,0.000000,6.426350
1751195617.807600,0.000000,0.000000,0.000000,6.426350
1751195617.957600,0.000000,0.000000,0.000000,6.408050
1751195618.007600,0.000000,0.000000,0.000000,6.408050
1751195618.057600,0.000000,0.000000,0.000000,6.423300
1751195618.107550,0.000000,0.000000,0.000000,6.423300
1751195618.157600,0.000000,0.000000,0.000000,6.423300
1751195618.257600,0.000000,0.000000,0.000000,6.429400
1751195618.307600,0.000000,0.000000,0.000000,6.429400
1751195618.407600,0.000000,0.000000,0.000000,6.429400
1751195618.457600,0.000000,0.000000,0.000000,6.429400
1751195618.507600,0.000000,0.000000,0.000000,6.429400
1751195618.557600,0.000000,0.000000,0.000000,6.429400
1751195618.607600,0.000000,0.000000,0.000000,6.429400
1751195618.707600,0.000000,0.000000,0.000000,6.417200
1751195618.857600,0.000000,0.303780,0.000000,0.000000
1751195618.907600,0.000000,0.366000,0.000000,0.000000
1751195618.957600,0.000000,0.431880,0.000000,0.000000
1751195619.007600,0.000000,0.424560,0.000000,0.000000
1751195619.157600,0.000000,0.387960,0.000000,0.000000
1751195619.207600,0.000000,0.344040,0.000000,0.000000
1751195619.357600,0.000000,0.369660,0.000000,0.000000
1751195619.407600,0.000000,0.380640,0.000000,0.000000
1751195619.457600,0.000000,0.400770,0.000000,0.000000
1751195619.557600,0.000000,0.413580,0.000000,0.000000
1751195619.757650,0.000000,0.371490,0.000000,0.000000
1751195619.807600,0.000000,0.380640,0.000000,0.000000
1751195619.907600,0.000000,0.404430,0.000000,0.000000
1751195619.957600,0.000000,0.393450,0.000000,0.000000
1751195620.007650,0.000000,0.382470,0.000000,0.000000
1751195620.057600,0.000000,0.384300,0.000000,0.000000
1751195620.107650,0.000000,0.387960,0.000000,0.000000
1751195620.207600,0.000000,0.375150,0.000000,0.000000
1751195620.257650,0.000000,0.382470,0.000000,0.000000
1751195620.357650,0.000000,0.351360,0.000000,0.000000
1751195620.407600,0.000000,0.340380,0.000000,0.000000
1751195620.457650,0.000000,0.366000,0.000000,0.000000
1751195620.557650,0.000000,0.000000,0.000000,0.000000
1751195620.757650,0.000000,0.000000,0.000000,0.000000
1751195620.807650,0.000000,0.000000,0.000000,0.000000
1751195620.857650,0.000000,0.000000,0.000000,0.000000
1751195620.907650,0.000000,47.680650,0.000000,0.000000
1751195620.957650,0.000000,0.000000,0.000000,0.000000
1751195621.007650,0.000000,0.000000,0.000000,0.000000
1751195621.207650,0.000000,0.000000,0.000000,0.000000
1751195621.307650,0.000000,0.000000,0.000000,0.000000
1751195621.407650,0.000000,0.000000,0.000000,0.000000
1751195621.507650,0.000000,119.929050,0.000000,0.000000
1751195621.557650,0.000000,119.929050,0.000000,0.000000
1751195621.607650,0.000000,0.000000,0.000000,0.000000
1751195621.707650,0.000000,0.000000,0.000000,0.000000
1751195621.807700,0.000000,0.000000,0.000000,0.000000
1751195621.857650,0.000000,0.000000,0.000000,0.000000
1751195621.907650,0.000000,119.929050,0.000000,0.000000
1751195621.957650,0.000000,119.929050,0.000000,0.000000
1751195622.057650,0.000000,119.929050,0.000000,0.000000
1751195622.107650,0.000000,0.000000,0.000000,0.000000
1751195622.207650,0.000000,0.000000,0.000000,0.000000
1751195622.307700,0.000000,0.000000,0.000000,0.000000
1751195622.357650,0.000000,0.000000,0.000000,0.000000
1751195622.407700,0.000000,0.000000,0.000000,0.000000
1751195622.457650,0.000000,0.000000,0.000000,0.000000
1751195622.557700,0.000000,0.000000,0.000000,0.000000
1751195622.657700,0.000000,0.000000,0.000000,0.000000
1751195622.707650,0.000000,0.000000,0.000000,0.000000
1751195622.807700,0.000000,0.000000,0.000000,0.000000
1751195622.857650,0.000000,0.000000,0.000000,0.000000
1751195623.007700,0.000000,0.000000,0.000000,0.000000
1751195623.057700,0.000000,0.000000,0.000000,0.000000
1751195623.107650,0.000000,0.000000,0.000000,0.000000
1751195623.207700,0.000000,0.000000,0.000000,0.000000
1751195623.257700,0.000000,0.000000,0.000000,0.000000
1751195623.357700,0.000000,0.000000,0.000000,0.000000
1751195623.407700,0.000000,0.000000,0.000000,0.000000
1751195623.607700,0.000000,0.000000,0.000000,0.000000
1751195623.657700,0.000000,0.000000,0.000000,0.000000
1751195623.757700,0.000000,0.000000,0.000000,0.000000
1751195623.807700,0.000000,0.000000,0.000000,0.000000
1751195623.907700,0.000000,0.000000,0.000000,0.000000
1751195623.957700,0.000000,0.000000,0.000000,0.000000
1751195624.007700,0.000000,0.000000,0.000000,0.000000
1751195624.057700,0.000000,0.000000,0.000000,0.000000
1751195624.107700,0.000000,0.000000,0.000000,0.000000
1751195624.207700,0.000000,18.784950,0.000000,0.000000
1751195624.307700,0.000000,0.000000,0.000000,0.000000
1751195624.507700,0.000000,119.929050,0.000000,0.000000
1751195624.557700,0.000000,0.000000,0.000000,0.000000
1751195624.607700,0.000000,0.000000,0.000000,0.000000
1751195624.657700,0.000000,119.929050,0.000000,0.000000
1751195624.757700,0.000000,0.000000,0.000000,0.000000
1751195624.857750,0.000000,50.191410,0.000000,0.000000
1751195625.007700,0.000000,0.000000,0.000000,0.000000
1751195625.057750,0.000000,111.514710,0.000000,0.000000
1751195625.107750,0.000000,119.929050,0.000000,0.000000
1751195625.157700,0.000000,0.000000,0.000000,0.000000
1751195625.207750,0.000000,0.000000,0.000000,0.000000
1751195625.257750,0.000000,0.000000,0.000000,0.000000
1751195625.407750,0.000000,0.000000,0.000000,0.000000
1751195625.457750,0.000000,0.000000,0.000000,0.000000
1751195625.507700,0.000000,119.929050,0.000000,0.000000
1751195625.607750,0.000000,0.000000,0.000000,0.000000
1751195625.657700,0.000000,0.000000,0.000000,0.000000
1751195625.707750,0.000000,119.929050,0.000000,0.000000
1751195625.757750,0.000000,119.929050,0.000000,0.000000
1751195625.807750,0.000000,0.000000,0.000000,0.000000
1751195625.957750,0.000000,0.000000,0.000000,0.000000
1751195626.057750,0.000000,0.000000,0.000000,0.000000
1751195626.107750,0.000000,0.000000,0.000000,0.000000
1751195626.157750,0.000000,0.023790,0.000000,0.000000
1751195626.257750,0.000000,0.000000,0.000000,0.000000
1751195626.307750,0.000000,0.000000,0.000000,0.000000
1751195626.407750,0.000000,0.000000,0.000000,0.000000
1751195626.457750,0.000000,0.000000,0.000000,0.000000
1751195626.607750,0.000000,0.000000,0.000000,0.000000
1751195626.657750,0.000000,0.000000,0.000000,0.000000
1751195626.707750,0.000000,0.000000,0.000000,0.000000
1751195626.757750,0.000000,0.000000,0.000000,0.000000
1751195626.807750,0.000000,0.000000,0.000000,0.000000
1751195626.907750,0.000000,0.000000,0.000000,0.000000
1751195626.957750,0.000000,0.000000,0.000000,0.000000
1751195627.057750,0.000000,0.000000,0.000000,0.000000
1751195627.207750,0.000000,0.000000,0.000000,0.000000
1751195627.257750,0.000000,0.000000,0.000000,0.000000
1751195627.407800,0.000000,119.929050,0.000000,0.000000
1751195627.557750,0.000000,119.929050,0.000000,0.000000
1751195627.607750,0.000000,0.000000,0.000000,0.000000
1751195627.657800,0.000000,0.000000,0.000000,0.000000
1751195627.707750,0.000000,0.000000,0.000000,0.000000
1751195627.857800,0.000000,0.000000,0.000000,0.000000
1751195628.007800,0.000000,0.000000,0.000000,0.000000
1751195628.057750,0.000000,0.000000,0.000000,0.000000
1751195628.107800,0.000000,0.000000,0.000000,0.000000
1751195628.157800,0.000000,0.000000,0.000000,0.000000
1751195628.207800,0.000000,0.000000,0.000000,0.000000
1751195628.307750,0.000000,0.000000,0.000000,0.000000
1751195628.357800,0.000000,0.000000,0.000000,0.000000
1751195628.407800,0.000000,0.000000,0.000000,0.000000
1751195628.457800,0.000000,0.000000,0.000000,0.000000
1751195628.507800,0.000000,0.000000,0.000000,0.000000
1751195628.607800,0.000000,0.000000,0.000000,0.000000
1751195628.657800,0.000000,0.000000,0.000000,0.000000
1751195628.707800,0.000000,0.000000,0.000000,0.000000
1751195628.757800,0.000000,119.929050,0.000000,0.000000
1751195628.807800,0.000000,0.000000,0.000000,0.000000
1751195628.857800,0.000000,0.000000,0.000000,0.000000
1751195628.907800,0.000000,0.000000,0.000000,0.000000
1751195628.957800,0.000000,0.000000,0.000000,0.000000
1751195629.107800,0.000000,0.000000,0.000000,0.000000
1751195629.157800,0.000000,0.000000,0.000000,0.000000
1751195629.257800,0.000000,0.000000,0.000000,0.000000
1751195629.307800,0.000000,0.000000,0.000000,0.000000
1751195629.357800,0.000000,0.000000,0.000000,0.000000
1751195629.457950,0.000000,0.000000,0.000000,0.000000
1751195629.607800,0.000000,0.000000,0.000000,0.000000
1751195629.857800,0.000000,0.000000,0.000000,0.000000
1751195629.957800,0.000000,119.929050,0.000000,0.000000
1751195630.007800,0.000000,119.929050,0.000000,0.000000
1751195630.057800,0.000000,0.000000,0.000000,0.000000
1751195630.107800,0.000000,0.000000,0.000000,0.000000
1751195630.157800,0.000000,0.000000,0.000000,0.000000
1751195630.207800,0.000000,0.000000,0.000000,0.000000
1751195630.257850,0.000000,0.000000,0.000000,0.000000
1751195630.307850,0.000000,0.000000,0.000000,0.000000
1751195630.357900,0.000000,0.000000,0.000000,0.000000
1751195630.407800,0.000000,119.929050,0.000000,0.000000
1751195630.457800,0.000000,0.021960,0.000000,0.000000
1751195630.507800,0.000000,0.000000,0.000000,0.000000
1751195630.557850,0.000000,119.929050,0.000000,0.000000
1751195630.657850,0.000000,0.000000,0.000000,0.000000
1751195630.707800,0.000000,0.000000,0.000000,0.000000
1751195630.757850,0.000000,0.000000,0.000000,0.000000
1751195630.807850,0.000000,0.000000,0.000000,0.000000
1751195630.857800,0.000000,0.000000,0.000000,0.000000
1751195631.007950,0.000000,0.000000,0.000000,0.000000
1751195631.057850,0.000000,119.929050,0.000000,0.000000
1751195631.107800,0.000000,96.007290,0.000000,0.000000
1751195631.157850,0.000000,0.000000,0.000000,0.000000
1751195631.207850,0.000000,0.000000,0.000000,0.000000
1751195631.257850,0.000000,0.000000,0.000000,0.000000
1751195631.307850,0.000000,119.929050,0.000000,0.000000
1751195631.357850,0.000000,119.929050,0.000000,0.000000
1751195631.407850,0.000000,0.000000,0.000000,0.000000
1751195631.457900,0.000000,0.000000,0.000000,0.000000
1751195631.557850,0.000000,0.000000,0.000000,0.000000
1751195631.657850,0.000000,0.000000,0.000000,0.000000
1751195631.757850,0.000000,0.000000,0.000000,0.000000
1751195631.907850,0.000000,0.000000,0.000000,0.000000
1751195632.107900,0.000000,2.999370,0.000000,0.000000
1751195632.307850,0.000000,0.000000,0.000000,0.000000
1751195632.407850,0.000000,0.000000,0.000000,0.000000
1751195632.507850,0.000000,0.000000,0.000000,0.000000
1751195632.557850,0.000000,0.000000,0.000000,0.000000
1751195632.607900,0.000000,0.000000,0.000000,0.000000
1751195632.707850,0.000000,0.000000,0.000000,0.000000
1751195632.857900,0.000000,0.000000,0.000000,0.000000
1751195632.907850,0.000000,0.000000,0.000000,0.000000
1751195632.957900,0.000000,0.000000,0.000000,0.000000
1751195633.007850,0.000000,0.000000,0.000000,0.000000
1751195633.157850,0.000000,0.000000,0.000000,0.000000
1751195633.207900,0.000000,119.929050,0.000000,0.000000
1751195633.257850,0.000000,119.929050,0.000000,0.000000
1751195633.307850,0.000000,0.000000,0.000000,0.000000
1751195633.357900,0.000000,0.000000,0.000000,0.000000
1751195633.407900,0.000000,0.000000,0.000000,0.000000
1751195633.457900,0.000000,0.000000,0.000000,0.000000
1751195633.507850,0.000000,0.000000,0.000000,0.000000
1751195633.557900,0.000000,0.000000,0.000000,0.000000
1751195633.607900,0.000000,0.000000,0.000000,0.000000
1751195633.657850,0.000000,0.000000,0.000000,0.000000
1751195633.807900,0.000000,0.000000,0.000000,0.000000
1751195633.857900,0.000000,0.000000,0.000000,0.000000
1751195634.007850,0.000000,0.000000,0.000000,0.000000
1751195634.057900,0.000000,0.000000,0.000000,0.000000
1751195634.107900,0.000000,0.000000,0.000000,0.000000
1751195634.157900,0.000000,0.000000,0.000000,0.000000
1751195634.257900,0.000000,0.000000,0.000000,0.000000
1751195634.307900,0.000000,0.000000,0.000000,0.000000
1751195634.357900,0.000000,0.000000,0.000000,0.000000
1751195634.407900,0.000000,0.000000,0.000000,0.000000
1751195634.507900,0.000000,0.000000,0.000000,0.000000
1751195634.607900,0.000000,119.929050,0.000000,0.000000
1751195634.657900,0.000000,0.000000,0.000000,0.000000
1751195634.707900,0.000000,0.000000,0.000000,0.000000
1751195634.757900,0.000000,0.000000,0.000000,0.000000
1751195634.807900,0.000000,0.000000,0.000000,0.000000
1751195634.907900,0.000000,0.000000,0.000000,0.000000
1751195635.007900,0.000000,119.929050,0.000000,0.000000
1751195635.057900,0.000000,0.000000,0.000000,0.000000
1751195635.207900,0.000000,0.000000,0.000000,0.000000
1751195635.257900,0.000000,119.929050,0.000000,0.000000
1751195635.357900,0.000000,119.929050,0.000000,0.000000
1751195635.407900,0.000000,0.000000,0.000000,0.000000
1751195635.457900,0.000000,0.000000,0.000000,0.000000
1751195635.507950,0.000000,0.000000,0.000000,0.000000
1751195635.557900,0.000000,119.929050,0.000000,0.000000
1751195635.607900,0.000000,0.000000,0.000000,0.000000
1751195635.657950,0.000000,0.000000,0.000000,0.000000
1751195635.707900,0.000000,0.000000,0.000000,0.000000
1751195635.757900,0.000000,0.000000,0.000000,0.000000
1751195635.857900,0.000000,0.000000,0.000000,0.000000
1751195635.907950,0.000000,119.929050,0.000000,0.000000
1751195635.957900,0.000000,0.000000,0.000000,0.000000
1751195636.007950,0.000000,119.929050,0.000000,0.000000
1751195636.057900,0.000000,0.000000,0.000000,0.000000
1751195636.107950,0.000000,0.186660,0.000000,0.000000
1751195636.157950,0.000000,0.000000,0.000000,0.000000
1751195636.207950,0.000000,0.000000,0.000000,0.000000
1751195636.257950,0.000000,0.000000,0.000000,0.000000
1751195636.307900,0.000000,119.929050,0.000000,0.000000
1751195636.357950,0.000000,0.000000,0.000000,0.000000
1751195636.457950,0.000000,0.000000,0.000000,0.000000
1751195636.607950,0.000000,0.000000,0.000000,0.000000
1751195636.657950,0.000000,0.000000,0.000000,0.000000
1751195636.757950,0.000000,0.000000,0.000000,0.000000
1751195636.807950,0.000000,0.000000,0.000000,0.000000
1751195636.857950,0.000000,0.000000,0.000000,0.000000
1751195636.907950,0.000000,119.929050,0.000000,0.000000
1751195636.957950,-0.009150,0.000000,0.000000,0.000000
1751195637.057950,-0.118950,0.000000,0.000000,0.000000
1751195637.107950,0.494100,0.000000,0.000000,0.000000
1751195637.207950,0.000000,0.470310,0.000000,0.000000
1751195637.307950,0.000000,0.000000,0.000000,0.000000
1751195637.357950,0.000000,0.000000,0.000000,0.000000
1751195637.407950,0.000000,0.000000,0.000000,0.000000
1751195637.607950,21.374400,0.000000,0.000000,0.000000
1751195637.757950,-162.998100,0.000000,0.000000,0.000000
1751195637.808000,-0.009150,1.932480,0.000000,0.000000
1751195637.957950,0.100650,0.000000,0.000000,0.000000
1751195638.057950,-0.009150,0.000000,0.000000,0.000000
1751195638.107950,0.036600,0.000000,0.000000,0.000000
1751195638.207950,-0.091500,119.929050,0.000000,0.000000
1751195638.257950,-0.201300,119.929050,0.000000,0.000000
1751195638.658000,-0.137250,108.798990,0.000000,0.000000
1751195639.108000,-0.192150,0.000000,0.000000,0.000000
1751195651.058300,-118.867650,0.000000,0.000000,0.000000
1751195651.408350,0.000000,0.000000,0.000000,0.000000
1751195651.658350,0.000000,0.000000,0.000000,0.000000
1751195652.258350,0.000000,0.000000,0.000000,0.000000
1751195652.358300,-0.009150,0.000000,0.000000,0.000000
1751195652.608300,0.000000,0.000000,0.000000,0.000000
1751195652.808300,-0.009150,0.000000,0.000000,0.000000
1751195653.008250,-0.009150,0.000000,0.000000,0.000000
1751195653.708500,-0.741150,119.929050,0.000000,0.000000
1751195653.758250,-0.009150,0.000000,0.000000,0.000000
1751195654.008250,0.000000,0.940620,0.000000,0.000000
1751195654.108500,0.000000,0.000000,0.000000,0.000000
1751195654.758500,0.000000,119.929050,0.000000,0.000000
1751195654.858500,0.000000,0.000000,0.000000,0.000000
1751195654.908500,-0.009150,119.929050,0.000000,0.000000
1751195655.058450,4.657350,0.000000,0.000000,0.000000
1751195655.108500,0.000000,0.000000,0.000000,0.000000
1751195655.358500,0.000000,0.000000,0.000000,0.000000
1751195655.658450,0.000000,32.621580,0.000000,0.000000
1751195655.758450,0.000000,0.000000,0.000000,0.000000
1751195655.858450,-0.009150,0.000000,0.000000,0.000000
1751195655.958450,-0.009150,0.000000,0.000000,0.000000
1751195656.058450,0.000000,0.000000,0.000000,0.000000
1751195656.108450,-0.009150,0.000000,0.000000,0.000000
1751195656.258450,0.000000,0.000000,0.000000,0.000000
1751195657.058400,-0.155550,0.000000,0.000000,0.000000
1751195657.158400,0.000000,0.000000,0.000000,0.000000
1751195657.258400,0.000000,0.000000,0.000000,0.000000
1751195657.458450,0.000000,0.000000,0.000000,0.000000
1751195657.708450,0.000000,0.000000,0.000000,0.000000
1751195657.758400,0.000000,0.000000,0.000000,0.000000
1751195658.108450,0.000000,99.594090,0.000000,0.000000
1751195658.258400,-0.768600,0.000000,0.000000,0.000000
1751195658.508350,-11.227050,119.929050,0.000000,0.000000
1751195658.658350,44.176200,21.147480,0.000000,0.000000
1751195658.708350,-0.009150,119.929050,0.000000,0.000000
1751195658.808350,0.000000,0.000000,0.000000,0.000000
1751195658.858350,0.000000,0.000000,0.000000,0.000000
1751195658.908350,0.000000,0.000000,0.000000,0.000000
1751195659.158400,0.000000,0.000000,0.000000,0.000000
1751195659.258400,-0.009150,0.000000,0.000000,0.000000
1751195659.358350,-0.009150,0.000000,0.000000,0.000000
1751195659.408350,27.294450,0.000000,0.000000,0.000000
1751195659.608350,-282.186000,0.000000,0.000000,0.000000
1751195659.658400,0.000000,0.000000,0.000000,0.000000
1751195659.708600,0.000000,0.000000,0.000000,0.000000
1751195659.858600,-0.009150,0.000000,0.000000,0.000000
1751195660.258600,0.000000,0.000000,0.000000,0.000000
1751195660.408550,8.601000,0.000000,0.000000,0.000000
1751195660.458550,0.000000,0.000000,0.000000,0.000000
1751195660.508600,0.000000,0.000000,0.000000,0.000000
1751195660.958600,0.000000,0.000000,0.000000,0.000000
1751195661.008550,0.000000,0.000000,0.000000,0.000000
1751195661.158550,-0.009150,119.929050,0.000000,0.000000
1751195661.258650,232.602150,0.000000,0.000000,0.000000
1751195661.358550,-0.009150,0.000000,0.000000,0.000000
1751195661.408550,-0.009150,0.000000,0.000000,0.000000
1751195661.858500,3.385500,0.000000,0.000000,0.000000
1751195662.008550,-0.009150,0.000000,0.000000,0.000000
1751195662.458500,0.000000,42.893370,0.000000,0.000000
1751195662.658500,0.000000,0.000000,0.000000,0.000000
1751195662.758500,0.000000,119.929050,0.000000,0.000000
1751195662.858550,-0.009150,119.929050,0.000000,0.000000
1751195662.908500,0.000000,0.000000,0.000000,0.000000
1751195663.308500,-221.192100,0.000000,0.000000,0.000000
1751195663.408500,0.000000,0.000000,0.000000,0.000000
1751195663.758500,-0.009150,0.000000,0.000000,0.000000
1751195663.808550,0.000000,0.000000,0.000000,0.000000
1751195663.908500,0.000000,0.000000,0.000000,0.000000
1751195664.008500,0.000000,0.000000,0.000000,0.000000
1751195664.608500,-0.009150,0.000000,0.000000,0.000000
1751195664.808500,-0.009150,0.000000,0.000000,0.000000
1751195664.958500,0.000000,119.929050,0.000000,0.000000
1751195665.058650,168.451500,0.000000,0.000000,0.000000
1751195665.108500,-0.009150,0.000000,0.000000,0.000000
1751195665.258500,0.000000,0.000000,0.000000,0.000000
1751195665.358450,0.000000,117.765990,0.000000,0.000000
1751195665.458500,0.000000,0.000000,0.000000,0.000000
1751195665.708700,0.000000,119.929050,0.000000,0.000000
1751195665.758700,-0.009150,0.000000,0.000000,0.000000
1751195665.858700,-0.009150,0.000000,0.000000,0.000000
1751195665.958700,7.127850,0.000000,0.000000,0.000000
1751195666.158650,0.000000,0.000000,0.000000,0.000000
1751195666.308700,0.000000,0.036600,0.000000,0.000000
1751195666.358650,0.000000,0.023790,0.000000,0.000000
1751195666.458500,0.000000,0.195810,0.000000,0.000000
1751195666.508650,0.000000,0.000000,0.000000,0.000000
1751195666.708550,0.402600,0.000000,0.000000,0.000000
1751195666.808500,0.000000,0.000000,0.000000,0.000000
1751195666.908700,-0.009150,0.000000,0.000000,0.000000
1751195667.008500,0.000000,0.000000,0.000000,0.000000
1751195667.108500,0.000000,0.001830,0.000000,0.000000
1751195667.208500,0.000000,0.000000,0.000000,0.000000
1751195667.758500,1.674450,0.000000,0.000000,0.000000
1751195668.108700,0.869250,119.929050,0.000000,0.000000
1751195668.208600,1.921500,119.929050,0.000000,0.000000
1751195668.408550,1.848300,119.929050,0.000000,0.000000
1751195668.658550,2.022150,0.000000,0.000000,0.000000
1751195668.758550,1.573800,119.929050,0.000000,0.000000
1751195669.008550,2.040450,0.000000,0.000000,0.000000
1751195669.058600,2.031300,0.000000,0.000000,0.000000
1751195669.158550,2.626050,0.000000,0.000000,0.000000
1751195669.258550,1.354200,0.000000,0.000000,0.000000
1751195669.658550,0.850950,0.000000,0.000000,0.000000
1751195669.708550,3.120150,0.000000,0.000000,0.000000
1751195669.908550,2.067900,0.000000,0.000000,0.000000
1751195669.958550,2.745000,0.737490,0.000000,0.000000
1751195670.008550,3.028650,0.000000,0.000000,0.000000
1751195670.208550,2.992050,119.929050,0.000000,0.000000
1751195670.458750,3.129300,119.929050,0.000000,0.000000
1751195670.608750,2.067900,0.000000,0.000000,0.000000
1751195670.658550,2.836500,0.000000,0.000000,0.000000
1751195670.858600,3.458700,119.929050,0.000000,0.000000
1751195671.108600,0.000000,0.000000,0.000000,0.000000
1751195671.208600,0.000000,0.000000,0.000000,0.000000
1751195671.308800,0.000000,0.000000,0.000000,0.000000
1751195671.458600,48.083250,119.929050,0.000000,0.000000
1751195671.508750,0.000000,0.000000,0.000000,0.000000
1751195671.608600,-50.471400,115.350390,0.000000,0.000000
1751195671.658600,0.000000,0.000000,0.000000,-0.003050
1751195671.958600,-11.995650,0.000000,0.000000,-0.003050
1751195672.008800,0.000000,119.929050,0.000000,0.000000
1751195672.108750,0.000000,0.000000,0.000000,0.006100
1751195672.208750,0.000000,0.000000,0.000000,0.000000
1751195672.308600,0.000000,0.000000,0.000000,0.000000
1751195672.358600,0.000000,0.000000,0.000000,0.000000
1751195672.458600,0.000000,0.000000,0.000000,0.000000
1751195672.908650,0.000000,0.000000,0.000000,0.000000
1751195672.958750,0.000000,0.000000,0.000000,0.000000
1751195673.058600,0.000000,0.000000,0.000000,0.000000
1751195673.158650,0.000000,0.000000,0.000000,0.000000
1751195673.358600,0.000000,0.000000,0.000000,0.000000
1751195673.408800,0.000000,0.000000,0.000000,0.000000
1751195673.458600,0.000000,0.000000,0.000000,-0.003050
1751195673.558600,0.000000,0.000000,0.000000,0.000000
1751195673.608650,2.982900,0.000000,0.000000,0.000000
1751195673.658800,0.000000,0.000000,0.000000,0.000000
1751195673.758650,0.000000,119.929050,0.000000,0.000000
1751195674.108750,0.000000,0.000000,0.000000,0.000000
1751195674.308600,-0.009150,119.929050,0.000000,-0.003050
1751195674.358650,0.000000,0.000000,0.000000,0.000000
1751195674.508650,-0.009150,119.929050,0.000000,-0.003050
1751195674.658700,0.000000,0.000000,0.000000,0.000000
1751195674.808650,0.000000,0.000000,0.000000,0.000000
1751195674.908650,0.000000,0.000000,0.000000,0.000000
1751195674.958850,0.000000,54.219240,0.000000,0.000000
1751195675.008650,0.000000,0.000000,0.000000,0.000000
1751195675.108850,0.000000,119.929050,0.000000,-0.003050
1751195675.158650,0.000000,0.000000,0.000000,0.000000
1751195675.258650,0.000000,0.000000,0.000000,0.000000
1751195675.308850,0.000000,0.000000,0.000000,0.000000
1751195675.508750,0.000000,0.000000,0.000000,0.000000
1751195675.658650,-6.011550,0.000000,0.000000,-0.122000
1751195675.758650,-187.071750,0.000000,0.000000,-0.003050
1751195675.808800,-0.009150,0.000000,0.000000,-0.003050
1751195675.958850,0.375150,0.000000,0.000000,0.000000
1751195676.008650,-0.009150,0.000000,0.000000,0.000000
1751195676.108650,-0.009150,0.000000,0.000000,0.000000
1751195676.158650,0.000000,0.000000,0.000000,0.000000
1751195676.358800,0.000000,0.000000,0.000000,0.000000
1751195676.408750,0.000000,0.000000,0.000000,0.000000
1751195676.508800,0.000000,25.883520,0.000000,0.000000
1751195676.558700,0.000000,0.000000,0.000000,0.000000
1751195676.608650,0.000000,0.000000,0.000000,0.000000
1751195676.658700,0.000000,0.000000,0.000000,-0.003050
1751195676.708700,0.000000,0.000000,0.000000,0.000000
1751195676.758850,96.258000,0.000000,0.000000,0.000000
1751195676.808700,-0.009150,0.000000,0.000000,0.000000
1751195677.108750,-0.009150,0.000000,0.000000,0.000000
1751195677.258800,0.000000,0.000000,0.000000,0.000000
1751195677.308700,0.000000,0.000000,0.000000,-0.003050
1751195677.458850,-24.009600,0.000000,0.000000,0.000000
1751195677.508900,0.018300,119.929050,0.000000,0.000000
1751195677.658700,-0.375150,0.000000,0.000000,0.000000
1751195677.708700,0.000000,0.000000,0.000000,0.000000
1751195677.808900,-0.009150,0.000000,0.000000,0.000000
1751195677.958700,-0.009150,119.929050,0.000000,0.000000
1751195678.158700,0.000000,0.000000,0.000000,0.000000
1751195678.258750,-0.009150,0.000000,0.000000,0.000000
1751195678.358750,-2.955450,119.929050,0.000000,0.000000
1751195678.508800,-0.009150,0.000000,0.000000,0.000000
1751195678.608750,-0.009150,119.929050,0.000000,0.000000
1751195678.758900,0.000000,0.000000,0.000000,0.000000
1751195679.008800,0.000000,0.000000,0.000000,0.000000
1751195679.108750,0.000000,55.558800,0.000000,-0.006100
1751195679.158700,0.000000,0.000000,0.000000,0.000000
1751195679.408700,0.000000,0.000000,0.000000,58.483750
1751195679.458750,-0.009150,0.000000,0.000000,0.000000
1751195679.658750,0.000000,0.000000,0.000000,0.000000
1751195679.708750,-0.009150,0.000000,0.000000,-10.080250
1751195679.758900,0.000000,0.000000,0.000000,-0.003050
1751195679.858850,0.000000,0.000000,0.000000,0.000000
1751195679.908900,0.000000,0.000000,0.000000,0.000000
1751195680.008950,0.000000,0.000000,0.000000,39.113200
1751195680.108900,-0.009150,0.000000,0.000000,21.999650
1751195680.158900,0.000000,1.275510,0.000000,0.000000
1751195680.308750,0.000000,1.259040,0.000000,0.000000
1751195680.358950,0.000000,1.216950,0.000000,0.000000
1751195680.408900,0.000000,1.196820,0.000000,-0.003050
1751195680.458750,0.000000,1.194990,0.000000,0.000000
1751195680.558750,0.000000,1.176690,0.000000,0.000000
1751195680.658750,0.000000,1.160220,0.000000,0.000000
1751195680.708750,0.000000,1.141920,0.000000,0.000000
1751195680.808750,-0.009150,1.085190,0.000000,0.000000
1751195680.908850,0.000000,0.935130,0.000000,0.000000
1751195680.958900,-0.009150,0.836310,0.000000,-0.003050
1751195681.058800,0.000000,0.625860,0.000000,0.000000
1751195681.158800,0.000000,0.360510,0.000000,0.000000
1751195681.208800,0.000000,0.254370,0.000000,0.000000
1751195681.308800,0.000000,0.142740,0.000000,0.000000
1751195681.408800,-0.009150,0.049410,0.000000,0.000000
1751195681.458750,0.000000,0.029280,0.000000,0.000000
1751195681.558800,-0.009150,0.000000,0.000000,-0.033550
1751195681.608750,0.173850,0.000000,0.000000,0.000000
1751195681.708750,0.000000,0.000000,0.000000,0.000000
1751195681.858750,0.448350,0.000000,0.000000,0.000000
1751195682.158800,0.000000,119.929050,0.000000,0.003050
1751195682.258800,167.445000,0.016470,0.000000,0.000000
1751195682.408850,0.000000,0.016470,0.000000,98.197800
1751195682.508900,0.000000,0.000000,0.000000,0.000000
1751195682.608850,0.000000,0.000000,0.000000,0.000000
1751195682.858900,0.000000,0.000000,0.000000,-0.003050
1751195682.908800,0.000000,0.000000,0.000000,0.000000
1751195682.958950,0.000000,0.000000,0.000000,-1.836100
1751195683.008950,-0.137250,0.000000,0.000000,0.000000
1751195683.158800,0.000000,119.929050,0.000000,0.000000
1751195683.209000,-269.705400,119.929050,0.000000,-0.003050
1751195683.258800,-0.009150,0.000000,0.000000,-0.003050
1751195683.308900,0.000000,0.000000,0.000000,-0.003050
1751195683.559000,0.000000,0.000000,0.000000,-0.003050
1751195683.658900,0.000000,119.929050,0.000000,0.000000
1751195683.708850,0.000000,119.929050,0.000000,0.000000
1751195683.808900,-26.736300,119.929050,0.000000,0.000000
1751195683.859000,0.000000,119.929050,0.000000,-0.003050
1751195683.958850,0.000000,119.929050,0.000000,0.000000
1751195684.008950,-0.009150,119.929050,0.000000,0.000000
1751195684.058800,0.000000,4.187040,0.000000,-0.003050
1751195684.158800,0.000000,4.187040,0.000000,-0.003050
1751195684.258900,-0.009150,0.000000,0.000000,0.000000
1751195684.308950,0.000000,0.000000,0.000000,-1.936750
1751195684.458850,0.000000,0.000000,0.000000,-6.505650
1751195684.708900,-0.009150,0.000000,0.000000,0.000000
1751195684.758950,-0.009150,0.000000,0.000000,7.286450
1751195684.858850,0.000000,2.327760,0.000000,0.000000
1751195685.059000,0.000000,119.929050,0.000000,0.000000
1751195685.109000,0.000000,119.929050,0.000000,0.000000
1751195685.158850,0.000000,119.929050,0.000000,-28.404650
1751195685.208950,-0.009150,119.929050,0.000000,0.000000
1751195685.308950,-0.009150,0.000000,0.000000,0.000000
1751195685.358850,0.000000,0.000000,0.000000,-0.003050
1751195685.408850,0.000000,0.000000,0.000000,-0.003050
1751195685.458900,0.000000,0.000000,0.000000,-37.426550
1751195685.508950,0.000000,0.000000,0.000000,0.000000
1751195685.708900,0.000000,0.000000,0.000000,0.000000
1751195685.858850,0.000000,0.000000,0.000000,0.000000
1751195685.908850,-0.009150,0.000000,0.000000,-0.003050
1751195686.108900,0.000000,0.000000,0.000000,0.000000
1751195686.158950,0.000000,0.000000,0.000000,0.000000
1751195686.208850,0.000000,0.000000,0.000000,0.000000
1751195686.258900,0.000000,0.000000,0.000000,0.000000
1751195686.358950,0.000000,0.000000,0.000000,0.000000
1751195686.409050,0.000000,0.000000,0.000000,0.000000
1751195686.458850,0.000000,0.000000,0.000000,36.972100
1751195686.509000,0.000000,0.000000,0.000000,0.000000
1751195686.808950,0.000000,0.020130,0.000000,0.000000
1751195686.858850,0.000000,0.000000,0.000000,0.000000
1751195686.908850,-0.009150,0.000000,0.000000,0.000000
1751195687.058850,0.000000,0.000000,0.000000,0.000000
1751195687.108850,0.000000,0.000000,0.000000,-0.713700
1751195687.158850,-0.009150,0.000000,0.000000,-87.940650
1751195687.209100,-0.009150,0.000000,0.000000,0.000000
1751195687.358850,0.000000,0.000000,0.000000,0.000000
1751195687.458950,0.000000,0.000000,0.000000,0.003050
1751195687.509050,-0.009150,0.000000,0.000000,0.000000
1751195687.559100,0.000000,0.000000,0.000000,0.000000
1751195687.658850,0.000000,0.000000,0.000000,0.000000
1751195687.708900,-224.348850,0.000000,0.000000,-0.003050
1751195687.759000,0.000000,0.000000,0.000000,0.000000
1751195687.858850,0.000000,0.000000,0.000000,0.000000
1751195687.958850,0.000000,0.000000,0.000000,3.586800
1751195688.008900,0.000000,0.000000,0.000000,0.000000
1751195688.058900,0.000000,0.000000,0.000000,-0.003050
1751195688.108900,0.000000,0.000000,0.000000,0.000000
1751195688.208950,0.000000,0.000000,0.000000,-0.003050
1751195688.258900,0.000000,119.929050,0.000000,0.000000
1751195688.308850,0.000000,119.929050,0.000000,-0.003050
1751195688.358850,0.000000,119.929050,0.000000,0.000000
1751195688.408900,-243.197850,119.929050,0.000000,0.000000
1751195688.508900,0.000000,0.000000,0.000000,0.000000
1751195688.658900,0.000000,0.000000,0.000000,0.000000
1751195688.708850,0.000000,0.000000,0.000000,0.000000
1751195688.809100,0.000000,0.000000,0.000000,0.000000
1751195688.958900,0.000000,0.000000,0.000000,0.000000
1751195689.009050,0.000000,0.000000,0.000000,0.000000
1751195689.058950,-0.009150,0.000000,0.000000,0.000000
1751195689.108900,-78.369750,0.000000,0.000000,0.000000
1751195689.158900,0.000000,0.000000,0.000000,0.000000
1751195689.208850,-0.009150,0.000000,0.000000,0.000000
1751195689.258900,0.000000,0.000000,0.000000,0.000000
1751195689.308950,0.000000,0.000000,0.000000,-33.806200
1751195689.358900,0.000000,0.000000,0.000000,0.000000
1751195689.408900,0.000000,0.000000,0.000000,0.000000
1751195689.458950,0.118950,0.000000,0.000000,-0.003050
1751195689.608900,-0.018300,0.000000,0.000000,0.000000
1751195689.659000,0.000000,0.000000,0.000000,0.000000
1751195689.808900,0.000000,0.000000,0.000000,0.000000
1751195689.859050,0.000000,119.929050,0.000000,-0.003050
1751195689.909050,0.000000,119.929050,0.000000,0.000000
1751195689.958950,0.000000,119.929050,0.000000,0.000000
1751195690.008900,0.000000,119.929050,0.000000,-0.003050
1751195690.059100,0.000000,119.929050,0.000000,0.000000
1751195690.108950,0.000000,119.929050,0.000000,-0.003050
1751195690.208900,0.000000,119.929050,0.000000,0.000000
1751195690.258950,0.000000,119.929050,0.000000,0.000000
1751195690.308900,0.000000,119.929050,0.000000,0.000000
1751195690.508900,24.531150,0.000000,0.000000,0.000000
1751195690.558950,-18.519600,0.000000,0.000000,-0.003050
1751195690.609000,0.000000,0.000000,0.000000,0.000000
1751195690.658900,0.000000,0.000000,0.000000,0.000000
1751195690.709100,0.000000,0.000000,0.000000,63.946300
1751195690.909000,0.000000,119.929050,0.000000,0.000000
1751195691.008950,0.000000,119.929050,0.000000,0.000000
1751195691.108950,0.000000,0.000000,0.000000,-0.003050
1751195691.259100,0.000000,0.000000,0.000000,0.000000
1751195691.359000,0.082350,3.198840,0.000000,0.375150
1751195691.408950,0.054900,0.000000,0.000000,0.423950
1751195691.658950,0.009150,0.000000,0.000000,-0.308050
1751195691.758950,0.036600,0.000000,0.000000,-0.622200
1751195691.858950,-0.009150,0.000000,0.000000,-0.381250
1751195691.958950,0.009150,0.000000,0.000000,-0.433100
1751195692.009000,-0.045750,0.000000,0.000000,-0.359900
1751195692.059100,0.027450,0.000000,0.000000,-0.710650
1751195692.159050,0.027450,0.000000,0.000000,-0.555100
1751195692.259100,0.000000,0.000000,0.000000,0.000000
1751195692.308950,-0.009150,0.000000,0.000000,0.000000
1751195692.359150,-0.009150,0.000000,0.000000,3.010350
1751195692.409100,-0.009150,0.000000,0.000000,-29.624650
1751195692.459000,-0.009150,119.929050,0.000000,0.000000
1751195692.558950,0.000000,119.929050,0.000000,-1.891000
1751195692.658950,0.000000,0.025620,0.000000,0.000000
1751195692.758950,0.000000,0.025620,0.000000,0.000000
1751195692.809000,0.000000,0.025620,0.000000,0.000000
1751195692.859000,-0.009150,0.010980,0.000000,-0.003050
1751195692.909150,-0.009150,0.010980,0.000000,0.000000
1751195692.959000,0.896700,0.036600,0.000000,4.873900
1751195693.009050,0.887550,0.065880,0.000000,4.129700
1751195693.258950,0.475800,0.078690,0.000000,1.945900
1751195693.609050,0.000000,0.000000,0.000000,-0.003050
1751195693.659000,0.000000,0.000000,0.000000,0.000000
1751195693.709150,0.000000,0.000000,0.000000,-15.741050
1751195693.759000,0.000000,0.000000,0.000000,-0.003050
1751195693.859000,0.000000,0.000000,0.000000,0.000000
1751195693.909150,0.000000,0.000000,0.000000,-0.003050
1751195694.009000,0.000000,0.000000,0.000000,-0.003050
1751195694.109000,0.000000,0.000000,0.000000,0.000000
1751195694.259150,0.000000,0.000000,0.000000,0.091500
1751195694.309000,0.000000,0.000000,0.000000,-0.003050
1751195694.459000,0.000000,0.000000,0.000000,0.000000
1751195694.509050,0.000000,0.000000,0.000000,-0.003050
1751195694.559000,0.000000,0.000000,0.000000,0.000000
1751195694.609150,0.000000,0.000000,0.000000,0.000000
1751195694.659050,0.000000,0.000000,0.000000,0.000000
1751195694.709150,0.000000,0.000000,0.000000,0.000000
1751195694.809000,0.000000,0.000000,0.000000,0.000000
1751195694.909050,0.000000,0.010980,0.000000,0.000000
1751195694.959000,0.000000,0.010980,0.000000,0.000000
1751195695.109150,0.000000,0.000000,0.000000,0.000000
1751195695.159000,0.000000,0.000000,0.000000,0.000000
1751195695.209000,0.000000,0.000000,0.000000,0.000000
1751195695.309100,0.000000,0.000000,0.000000,0.000000
1751195695.359050,0.000000,0.000000,0.000000,0.000000
1751195695.409050,0.000000,0.000000,0.000000,0.000000
1751195695.459000,0.000000,0.000000,0.000000,0.000000
1751195695.559100,0.000000,0.000000,0.000000,-0.003050
1751195695.609050,0.000000,0.000000,0.000000,-0.003050
1751195695.659200,-0.494100,0.000000,0.000000,-0.003050
1751195695.759050,-0.494100,0.000000,0.000000,-0.003050
1751195695.809200,-0.494100,0.000000,0.000000,86.510200
1751195695.909100,-0.009150,0.000000,0.000000,0.000000
1751195696.009150,-0.009150,0.000000,0.000000,0.000000
1751195696.059150,0.000000,119.929050,0.000000,0.000000
1751195696.159050,0.000000,119.929050,0.000000,0.000000
1751195696.259050,-0.009150,119.929050,0.000000,0.000000
1751195696.309100,-0.009150,119.929050,0.000000,-0.003050
1751195696.459150,0.000000,0.000000,0.000000,0.000000
1751195696.509050,0.000000,0.000000,0.000000,0.000000
1751195696.709050,0.000000,119.929050,0.000000,-0.003050
1751195696.809050,0.000000,119.929050,0.000000,0.000000
1751195696.859050,0.000000,0.000000,0.000000,0.000000
1751195696.959150,0.000000,0.000000,0.000000,0.000000
1751195697.009050,0.000000,0.000000,0.000000,-0.003050
1751195697.109050,0.000000,0.000000,0.000000,0.000000
1751195697.159050,0.000000,0.000000,0.000000,0.000000
1751195697.259050,0.000000,0.000000,0.000000,0.000000
1751195697.309100,0.000000,0.000000,0.000000,12.858800
1751195697.459150,0.000000,0.000000,0.000000,0.000000
1751195697.559100,0.000000,0.000000,0.000000,0.000000
1751195697.659100,0.000000,0.000000,0.000000,53.579350
1751195697.759050,0.000000,0.000000,0.000000,-0.003050
1751195697.809050,0.000000,0.000000,0.000000,-0.003050
1751195697.859200,0.000000,0.000000,0.000000,0.000000
1751195697.909250,0.000000,0.000000,0.000000,0.000000
1751195698.009250,0.000000,0.000000,0.000000,-0.003050
1751195698.109200,0.000000,0.000000,0.000000,0.000000
1751195698.159200,0.000000,0.000000,0.000000,0.000000
1751195698.209200,0.000000,0.000000,0.000000,0.000000
1751195698.309100,-0.009150,119.929050,0.000000,0.000000
1751195698.409100,-0.009150,119.929050,0.000000,0.000000
1751195698.459100,0.000000,0.000000,0.000000,0.000000
1751195698.559150,0.000000,0.000000,0.000000,69.753500
1751195698.659050,0.000000,0.000000,0.000000,-0.003050
1751195698.709150,0.000000,0.000000,0.000000,0.000000
1751195698.759200,0.000000,0.000000,0.000000,0.000000
1751195698.809050,0.000000,0.000000,0.000000,-0.003050
1751195698.859050,33.589650,0.000000,0.000000,0.000000
1751195698.909150,87.583800,0.000000,0.000000,0.000000
1751195699.059100,0.000000,0.000000,0.000000,0.000000
1751195699.109300,0.000000,0.000000,0.000000,0.000000
1751195699.159050,0.000000,0.000000,0.000000,-53.954500
1751195699.209050,0.000000,0.000000,0.000000,62.476200
1751195699.259100,0.000000,119.929050,0.000000,0.000000
1751195699.309100,0.000000,119.929050,0.000000,0.000000
1751195699.359150,0.000000,119.929050,0.000000,0.000000
1751195699.409150,0.000000,119.929050,0.000000,0.000000
1751195699.559150,-0.009150,0.000000,0.000000,0.000000
1751195699.609050,-0.009150,0.000000,0.000000,0.000000
1751195699.659100,0.000000,0.000000,0.000000,-0.003050
1751195699.709100,0.000000,0.000000,0.000000,0.000000
1751195699.759250,0.000000,0.000000,0.000000,0.000000
1751195699.909100,-0.009150,0.000000,0.000000,0.000000
1751195699.959100,-0.009150,0.000000,0.000000,0.000000
1751195700.009300,-0.009150,0.000000,0.000000,0.000000
1751195700.059100,0.000000,0.000000,0.000000,0.000000
1751195700.109100,0.000000,0.000000,0.000000,0.000000
1751195700.159100,0.000000,0.000000,0.000000,0.000000
1751195700.209150,0.000000,0.000000,0.000000,0.000000
1751195700.309150,128.228100,0.000000,0.000000,0.000000
1751195700.359050,128.228100,0.000000,0.000000,0.000000
1751195700.459100,0.000000,0.000000,0.000000,0.000000
1751195700.509100,0.000000,0.000000,0.000000,-0.003050
1751195700.559100,0.000000,0.000000,0.000000,-0.003050
1751195700.609050,0.000000,0.000000,0.000000,0.000000
1751195700.659100,0.000000,0.000000,0.000000,0.000000
1751195700.709300,0.000000,0.000000,0.000000,0.000000
1751195700.759100,0.000000,0.000000,0.000000,-0.003050
1751195700.809250,0.000000,0.000000,0.000000,0.000000
1751195700.859150,0.000000,0.000000,0.000000,0.000000
1751195700.959250,0.000000,0.000000,0.000000,-0.003050
1751195701.009100,0.000000,0.000000,0.000000,-0.003050
1751195701.059300,-0.009150,0.988200,0.000000,0.000000
1751195701.109150,-0.009150,0.988200,0.000000,0.000000
1751195701.159300,-0.009150,0.988200,0.000000,58.434950
1751195701.209150,-0.009150,0.988200,0.000000,0.000000
1751195701.259200,0.000000,0.000000,0.000000,-0.003050
1751195701.309350,0.000000,0.000000,0.000000,0.000000
1751195701.409300,0.000000,0.000000,0.000000,0.000000
1751195701.459150,0.000000,0.000000,0.000000,-0.003050
1751195701.509100,0.000000,0.000000,0.000000,-0.003050
1751195701.559350,0.000000,0.000000,0.000000,0.000000
1751195701.609100,0.000000,0.000000,0.000000,0.000000
1751195701.659150,0.000000,0.000000,0.000000,0.000000
1751195701.709100,0.000000,0.000000,0.000000,0.000000
1751195701.759250,0.000000,0.000000,0.000000,-0.003050
1751195701.809100,0.000000,0.000000,0.000000,0.000000
1751195701.859300,278.590050,17.156250,0.000000,0.000000
1751195701.909250,257.590800,17.156250,0.000000,-0.003050
1751195702.009200,66.584550,17.156250,0.000000,0.000000
1751195702.059100,0.000000,0.000000,0.000000,-0.009150
1751195702.109100,0.000000,0.000000,0.000000,0.000000
1751195702.159100,0.000000,0.000000,0.000000,-0.003050
1751195702.209150,0.000000,0.000000,0.000000,0.000000
1751195702.259300,0.000000,0.000000,0.000000,-0.003050
1751195702.309350,0.000000,0.000000,0.000000,0.000000
1751195702.359150,0.000000,0.000000,0.000000,0.000000
1751195702.409300,0.000000,0.000000,0.000000,0.000000
1751195702.459150,-0.009150,0.000000,0.000000,0.000000
1751195702.509100,-0.009150,0.000000,0.000000,0.000000
1751195702.559350,-0.009150,0.000000,0.000000,0.000000
1751195702.659150,0.000000,119.929050,0.000000,0.000000
1751195702.709350,0.000000,119.929050,0.000000,0.000000
1751195702.759300,0.000000,119.929050,0.000000,-0.003050
1751195702.809150,0.000000,119.929050,0.000000,0.000000
1751195702.859200,29.225100,0.000000,0.000000,0.000000
1751195702.909200,30.478650,0.000000,0.000000,-0.003050
1751195703.009150,31.732200,0.000000,0.000000,0.000000
1751195703.059350,-0.009150,0.000000,0.000000,0.000000
1751195703.109350,-0.009150,0.000000,0.000000,0.000000
1751195703.159300,-0.009150,0.000000,0.000000,0.000000
1751195703.209250,-0.009150,0.000000,0.000000,0.000000
1751195703.259350,-0.009150,0.000000,0.000000,-0.051850
1751195703.309100,-0.009150,0.000000,0.000000,0.000000
1751195703.359150,0.000000,0.000000,0.000000,0.000000
1751195703.459150,0.000000,0.000000,0.000000,0.000000
1751195703.559150,0.000000,0.000000,0.000000,0.000000
1751195703.609350,0.000000,0.000000,0.000000,0.000000
1751195703.809300,0.000000,0.000000,0.000000,0.000000
1751195703.859200,0.000000,119.929050,0.000000,0.000000
1751195703.909250,0.000000,119.929050,0.000000,0.000000
1751195703.959150,0.000000,119.929050,0.000000,0.000000
1751195704.059150,-0.009150,0.000000,0.000000,0.000000
1751195704.109300,-216.607950,0.000000,0.000000,9.171350
1751195704.159200,-216.607950,0.000000,0.000000,9.778300
1751195704.209150,-216.607950,0.000000,0.000000,9.622750
1751195704.259300,0.000000,119.929050,0.000000,10.458450
1751195704.309300,0.000000,119.929050,0.000000,10.031450
1751195704.559200,0.000000,0.000000,0.000000,10.354750
1751195704.659250,0.000000,6.522120,0.000000,10.385250
1751195704.709200,-0.009150,119.929050,0.000000,-0.045750
1751195704.759300,-0.009150,119.929050,0.000000,0.000000
1751195704.809200,-0.009150,119.929050,0.000000,0.000000
1751195704.859350,-0.009150,0.000000,0.000000,-27.074850
1751195704.909300,-0.009150,0.000000,0.000000,0.000000
1751195704.959200,-0.009150,0.000000,0.000000,0.000000
1751195705.059350,0.000000,119.929050,0.000000,-21.429300
1751195705.109200,0.000000,119.929050,0.000000,-16.537100
1751195705.159250,0.000000,0.000000,0.000000,0.000000
1751195705.209200,0.000000,0.000000,0.000000,0.000000
1751195705.259250,0.000000,0.000000,0.000000,0.000000
1751195705.309300,0.000000,0.000000,0.000000,0.000000
1751195705.409200,0.000000,0.000000,0.000000,0.000000
1751195705.459400,0.000000,0.000000,0.000000,0.000000
1751195705.659200,0.000000,0.000000,0.000000,0.000000
1751195705.759200,0.000000,0.000000,0.000000,0.000000
1751195705.859300,0.000000,0.000000,0.000000,0.000000
1751195705.909200,0.000000,0.000000,0.000000,0.000000
1751195706.059250,0.000000,0.000000,0.000000,0.000000
1751195706.109200,0.000000,0.000000,0.000000,0.000000
1751195706.159250,0.000000,0.000000,0.000000,0.000000
1751195706.209250,0.000000,0.000000,0.000000,-0.003050
1751195706.309300,0.000000,0.000000,0.000000,0.000000
1751195706.359300,0.000000,0.000000,0.000000,0.000000
1751195706.509200,0.000000,0.000000,0.000000,0.000000
1751195706.559250,0.000000,0.000000,0.000000,0.000000
1751195706.659250,-0.009150,0.000000,0.000000,0.000000
1751195706.709200,-0.009150,0.000000,0.000000,0.000000
1751195706.809200,-0.009150,0.000000,0.000000,-0.003050
1751195706.909200,-0.009150,0.000000,0.000000,0.000000
1751195706.959250,-0.009150,0.000000,0.000000,0.070150
1751195707.059350,0.000000,0.000000,0.000000,0.000000
1751195707.159300,0.000000,0.000000,0.000000,-0.003050
1751195707.209400,0.000000,0.000000,0.000000,-0.003050
1751195707.259250,0.000000,0.000000,0.000000,0.000000
1751195707.359250,0.000000,0.000000,0.000000,0.000000
1751195707.409350,0.000000,0.000000,0.000000,0.000000
1751195707.609350,0.000000,0.000000,0.000000,0.000000
1751195707.659300,0.000000,0.000000,0.000000,0.000000
1751195707.709250,0.000000,0.000000,0.000000,0.000000
1751195707.809250,0.000000,0.000000,0.000000,0.000000
1751195707.859250,0.000000,0.000000,0.000000,0.000000
1751195707.959450,0.000000,0.000000,0.000000,0.000000
1751195708.009350,0.000000,0.000000,0.000000,0.000000
1751195708.059250,0.000000,0.000000,0.000000,-0.003050
1751195708.159250,0.000000,0.000000,0.000000,-0.003050
1751195708.209250,0.000000,0.000000,0.000000,-9.241500
1751195708.259400,0.000000,0.000000,0.000000,0.000000
1751195708.309300,0.000000,0.000000,0.000000,0.000000
1751195708.459300,0.000000,0.000000,0.000000,-15.945400
1751195708.509300,0.000000,0.000000,0.000000,-0.003050
1751195708.609250,0.000000,0.000000,0.000000,10.604850
1751195708.659250,0.000000,0.000000,0.000000,0.000000
1751195708.709250,-0.009150,6.430620,0.000000,-0.003050
1751195708.759250,-0.009150,6.430620,0.000000,0.030500
1751195708.809400,-0.009150,6.430620,0.000000,-0.012200
1751195708.909250,-0.009150,6.432450,0.000000,0.042700
1751195709.009250,-0.009150,6.432450,0.000000,0.042700
1751195709.059350,-0.009150,6.430620,0.000000,0.009150
1751195709.159250,-0.009150,6.430620,0.000000,0.039650
1751195709.209250,-0.009150,6.430620,0.000000,0.000000
1751195709.259300,-0.009150,6.430620,0.000000,0.000000
1751195709.409450,-0.009150,6.430620,0.000000,-0.118950
1751195709.459300,-0.009150,6.426960,0.000000,0.018300
1751195709.509300,-0.009150,6.426960,0.000000,-0.118950
1751195709.559350,-0.009150,6.426960,0.000000,-0.076250
1751195709.609250,-0.009150,6.426960,0.000000,0.042700
1751195709.659350,-0.009150,6.428790,0.000000,0.021350
1751195709.709400,-0.009150,6.428790,0.000000,-0.015250
1751195709.759450,-0.009150,6.428790,0.000000,-0.039650
1751195709.809300,-0.009150,6.428790,0.000000,0.048800
1751195709.859350,-0.009150,6.428790,0.000000,-0.079300
1751195709.909250,-0.009150,6.428790,0.000000,0.000000
1751195709.959250,-0.009150,6.428790,0.000000,-0.082350
1751195710.009300,-0.009150,6.428790,0.000000,0.100650
1751195710.059300,-0.009150,6.428790,0.000000,0.000000
1751195710.209300,-0.009150,6.428790,0.000000,-0.128100
1751195710.259350,-0.009150,6.428790,0.000000,0.219600
1751195710.309400,-0.009150,6.428790,0.000000,-0.115900
1751195710.409250,-0.009150,6.428790,0.000000,0.137250
1751195710.459300,-0.009150,6.428790,0.000000,-0.036600
1751195710.509300,-0.009150,6.428790,0.000000,0.030500
1751195710.559350,-0.009150,6.428790,0.000000,-0.061000
1751195710.609400,-0.009150,6.428790,0.000000,0.045750
1751195710.659250,-0.009150,6.430620,0.000000,-0.003050
1751195710.709500,-0.009150,6.430620,0.000000,-0.097600
1751195710.759300,-0.009150,0.000000,0.000000,-0.045750
1751195710.909500,3.193350,0.000000,0.000000,-0.003050
1751195710.959450,3.193350,0.000000,0.000000,-0.003050
1751195711.009400,3.193350,0.000000,0.000000,0.000000
1751195711.109300,3.193350,0.000000,0.000000,0.009150
1751195711.159300,3.193350,0.000000,0.000000,0.000000
1751195711.209300,3.193350,0.000000,0.000000,0.000000
1751195711.259300,3.193350,0.000000,0.000000,0.000000
1751195711.409300,3.193350,0.000000,0.000000,0.003050
1751195711.559350,3.193350,0.000000,0.000000,0.000000
1751195711.609300,3.193350,0.000000,0.000000,0.000000
1751195711.659450,3.193350,0.000000,0.000000,-0.003050
1751195711.709300,3.193350,0.000000,0.000000,0.000000
1751195711.759300,3.193350,0.000000,0.000000,0.000000
1751195711.809500,3.193350,0.000000,0.000000,0.000000
1751195711.859400,3.193350,0.000000,0.000000,-0.003050
1751195711.909400,3.193350,0.000000,0.000000,0.000000
1751195711.959450,3.193350,0.000000,0.000000,0.000000
1751195712.009300,3.193350,0.000000,0.000000,0.000000
1751195712.059300,3.193350,0.000000,0.000000,0.000000
1751195712.209300,3.193350,0.000000,0.000000,0.000000
1751195712.259300,3.193350,0.000000,0.000000,0.000000
1751195712.309500,3.193350,0.000000,0.000000,0.000000
1751195712.359400,3.193350,0.000000,0.000000,0.000000
1751195712.409400,3.193350,0.000000,0.000000,0.000000
1751195712.459350,3.193350,0.000000,0.000000,0.000000
1751195712.509350,3.193350,0.000000,0.000000,0.000000
1751195712.559350,3.193350,0.000000,0.000000,0.000000
1751195712.609550,3.193350,0.000000,0.000000,0.000000
1751195712.659450,3.193350,0.000000,0.000000,36.493250
1751195712.709500,3.193350,0.000000,0.000000,0.000000
1751195712.809300,3.193350,0.000000,0.000000,0.000000
1751195712.859350,3.193350,0.000000,0.000000,0.000000
1751195712.909450,3.193350,0.000000,0.000000,0.000000
1751195712.959450,3.193350,0.000000,0.000000,0.000000
1751195713.009400,3.193350,0.000000,0.000000,0.000000
1751195713.109350,3.193350,0.000000,0.000000,0.000000
1751195713.209550,3.193350,0.000000,0.000000,0.000000
1751195713.259350,3.193350,0.000000,0.000000,-28.261300
1751195713.309350,3.193350,0.000000,0.000000,0.000000
1751195713.359450,3.193350,0.000000,0.000000,0.000000
1751195713.459300,3.193350,0.000000,0.000000,0.000000
1751195713.559300,3.193350,0.000000,0.000000,77.970200
1751195713.609400,3.193350,0.000000,0.000000,0.000000
1751195713.709300,3.193350,0.000000,0.000000,0.000000
1751195713.809500,3.193350,0.000000,0.000000,-11.803500
1751195713.909500,3.193350,0.000000,0.000000,-0.003050
1751195713.959550,3.193350,0.000000,0.000000,0.000000
1751195714.009500,3.193350,0.000000,0.000000,0.000000
1751195714.059400,3.193350,0.000000,0.000000,-0.003050
1751195714.109500,3.193350,0.000000,0.000000,0.000000
1751195714.159350,3.193350,0.000000,0.000000,0.000000
1751195714.259450,3.193350,0.000000,0.000000,0.000000
1751195714.359300,3.193350,0.000000,0.000000,0.000000
1751195714.409500,3.193350,0.000000,0.000000,5.904800
1751195714.509350,3.193350,0.000000,0.000000,0.000000
1751195714.559450,3.193350,0.000000,0.000000,0.000000
1751195714.609350,3.193350,0.000000,0.000000,0.000000
1751195714.659350,3.193350,0.000000,0.000000,0.000000
1751195714.709300,3.193350,0.000000,0.000000,0.000000
1751195714.759500,3.193350,0.000000,0.000000,0.000000
1751195714.809550,3.193350,0.000000,0.000000,-0.003050
1751195714.859550,3.193350,0.000000,0.000000,0.000000
1751195714.959350,3.193350,0.000000,0.000000,0.000000
1751195715.009350,3.193350,0.000000,0.000000,0.000000
1751195715.109400,3.193350,0.000000,0.000000,0.000000
1751195715.159350,3.193350,0.000000,0.000000,-0.003050
1751195715.259350,3.193350,0.000000,0.000000,-0.021350
1751195715.359500,3.193350,0.000000,0.000000,0.000000
1751195715.459350,3.184200,0.000000,0.000000,0.000000
1751195715.509500,3.184200,0.000000,0.000000,0.000000
1751195715.559400,3.184200,0.000000,0.000000,0.000000
1751195715.609400,3.184200,0.000000,0.000000,0.000000
1751195715.659350,3.184200,0.000000,0.000000,0.000000
1751195715.709550,3.184200,0.000000,0.000000,0.000000
1751195715.759400,0.000000,0.000000,0.000000,0.000000
1751195715.809400,0.000000,0.000000,0.000000,0.000000
1751195715.959450,0.000000,0.000000,0.000000,0.000000
1751195716.009400,0.000000,0.000000,0.000000,0.000000
1751195716.059400,0.000000,0.000000,0.000000,1.046150
1751195716.259400,2.845650,0.000000,0.000000,0.000000
1751195716.309400,0.000000,0.000000,0.000000,-0.003050
1751195716.459550,0.000000,0.000000,0.000000,0.000000
1751195716.509500,0.000000,0.000000,0.000000,0.000000
1751195716.659350,0.000000,0.000000,0.000000,68.957450
1751195716.709550,0.000000,0.000000,0.000000,68.957450
1751195716.759550,0.000000,119.929050,0.000000,0.000000
1751195716.809600,0.000000,119.929050,0.000000,0.000000
1751195716.909450,6.414150,0.000000,0.000000,3.196400
1751195716.959400,0.000000,0.000000,0.000000,0.000000
1751195717.009450,0.000000,119.929050,0.000000,0.000000
1751195717.059400,0.000000,0.000000,0.000000,0.000000
1751195717.109400,0.000000,0.000000,0.000000,0.000000
1751195717.159600,0.000000,0.000000,0.000000,0.000000
1751195717.259500,0.000000,0.195810,0.000000,-0.003050
1751195717.359450,0.000000,0.000000,0.000000,0.000000
1751195717.409400,0.000000,0.000000,0.000000,0.000000
1751195717.459400,0.000000,0.000000,0.000000,-0.942450
1751195717.559400,0.000000,0.000000,0.000000,2.979850
1751195717.609550,0.000000,0.000000,0.000000,2.979850
1751195717.709600,0.000000,119.929050,0.000000,0.000000
1751195717.759400,0.000000,119.929050,0.000000,0.000000
1751195717.809500,0.000000,119.929050,0.000000,0.000000
1751195717.909400,0.000000,0.000000,0.000000,7.649400
1751195717.959400,0.000000,0.000000,0.000000,7.649400
1751195718.009500,0.000000,0.000000,0.000000,7.649400
1751195718.059450,0.000000,0.000000,0.000000,-12.013950
1751195718.109600,0.000000,0.000000,0.000000,-12.013950
1751195718.159400,0.000000,0.000000,0.000000,-12.013950
1751195718.359400,0.000000,0.000000,0.000000,0.000000
1751195718.409450,0.000000,0.000000,0.000000,0.000000
1751195718.459400,0.000000,0.124440,0.000000,0.000000
1751195718.509500,0.000000,0.124440,0.000000,0.000000
1751195718.559400,0.000000,119.929050,0.000000,0.000000
1751195718.659400,0.000000,0.000000,0.000000,0.057950
1751195718.759500,0.000000,0.000000,0.000000,0.057950
1751195718.859550,0.000000,0.000000,0.000000,-0.003050
1751195718.909400,0.000000,0.000000,0.000000,-0.003050
1751195718.959650,0.000000,0.000000,0.000000,-0.003050
1751195719.009500,0.000000,0.000000,0.000000,-0.003050
1751195719.109550,0.000000,0.000000,0.000000,0.057950
1751195719.159450,0.000000,0.000000,0.000000,0.057950
1751195719.259450,0.000000,0.000000,0.000000,0.000000
1751195719.309400,0.000000,0.000000,0.000000,0.000000
1751195719.359550,0.000000,0.000000,0.000000,0.000000
1751195719.409400,0.000000,0.000000,0.000000,0.000000
1751195719.459400,0.000000,0.000000,0.000000,0.000000
1751195719.559450,0.000000,0.000000,0.000000,0.000000
1751195719.609650,0.000000,0.000000,0.000000,0.000000
1751195719.659450,0.000000,115.500450,0.000000,-0.003050
1751195719.759600,0.000000,115.500450,0.000000,-0.003050
1751195719.809400,0.000000,115.500450,0.000000,-0.003050
1751195719.859550,0.000000,119.929050,0.000000,0.000000
1751195720.009450,0.000000,119.929050,0.000000,0.000000
1751195720.059550,0.000000,119.929050,0.000000,-0.012200
1751195720.109450,0.000000,119.929050,0.000000,-0.012200
1751195720.159400,0.000000,119.929050,0.000000,-0.012200
1751195720.309550,0.000000,0.000000,0.000000,0.000000
1751195720.359450,0.000000,0.000000,0.000000,0.000000
1751195720.459650,0.000000,0.000000,0.000000,-4.977600
1751195720.559450,0.000000,0.000000,0.000000,-4.977600
1751195720.609550,0.000000,0.000000,0.000000,-4.977600
1751195720.659600,0.000000,0.000000,0.000000,-0.003050
1751195720.709700,0.000000,0.000000,0.000000,-0.003050
1751195720.809650,0.000000,0.000000,0.000000,-0.003050
1751195720.909500,0.000000,119.929050,0.000000,0.000000
1751195720.959550,0.000000,119.929050,0.000000,0.000000
1751195721.009550,0.000000,119.929050,0.000000,0.000000
1751195721.059500,0.000000,0.000000,0.000000,0.000000
1751195721.109450,0.000000,0.000000,0.000000,0.000000
1751195721.159600,0.000000,0.000000,0.000000,0.000000
1751195721.209550,0.000000,0.000000,0.000000,0.000000
1751195721.259450,0.000000,30.992880,0.000000,0.003050
1751195721.309550,0.000000,30.992880,0.000000,0.003050
1751195721.359500,0.000000,30.992880,0.000000,0.003050
1751195721.459600,0.000000,119.929050,0.000000,0.000000
1751195721.509500,0.000000,119.929050,0.000000,0.000000
1751195721.559500,0.000000,119.929050,0.000000,0.000000
1751195721.609500,0.000000,119.929050,0.000000,0.000000
1751195721.659450,0.000000,0.000000,0.000000,0.000000
1751195721.709500,0.000000,0.000000,0.000000,0.000000
1751195721.759600,0.000000,0.000000,0.000000,0.000000
1751195721.809650,0.000000,0.000000,0.000000,0.000000
1751195721.859450,0.000000,0.000000,0.000000,0.000000
1751195721.909500,0.000000,0.000000,0.000000,0.000000
1751195722.009500,0.000000,0.000000,0.000000,0.000000
1751195722.059500,0.000000,119.929050,0.000000,0.000000
1751195722.109450,0.000000,119.929050,0.000000,0.000000
1751195722.209550,0.000000,119.929050,0.000000,0.000000
1751195722.259600,0.000000,0.000000,0.000000,0.000000
1751195722.309700,0.000000,0.000000,0.000000,0.000000
1751195722.359650,0.000000,0.000000,0.000000,0.000000
1751195722.409550,0.000000,0.000000,0.000000,0.000000
1751195722.609600,0.000000,119.929050,0.000000,0.000000
1751195722.659650,0.000000,0.000000,0.000000,0.000000
1751195722.709500,0.000000,0.000000,0.000000,0.000000
1751195722.759500,0.000000,0.000000,0.000000,0.000000
1751195722.809500,0.000000,0.000000,0.000000,0.000000
1751195722.859700,0.000000,0.000000,0.000000,0.000000
1751195722.909600,0.000000,119.929050,0.000000,0.000000
1751195722.959450,0.000000,119.929050,0.000000,0.000000
